submission_id,age,ambiguous_response,itemName,category,answer,comments,correct_response,education,experiment_duration,experiment_end_time,experiment_start_time,gender,languages,responseTime,settingName,trialNr,trial_type,competitor,sameCategory,otherCategory
80,49,NA,touristInfo-childTheatre,competitor,No I'm sorry there isn't.  There is a circus on though.   Would you like the details?,NA,main,Graduated College,1022613,1667217900813,1667216878200,female,NA,91713,touristInfo,1,main,0.7173333333333334,0.29066666666666663,0.23266666666666666
80,49,NA,electronics-laptop,competitor,No I'm sorry.   We do have a MacBook Air if you would like to look at that.,NA,main,Graduated College,1022613,1667217900813,1667216878200,female,NA,91031,electronics,2,main,0.68,0.27375000000000005,0.21125
80,49,NA,waterSport-motor,fullList,"No I'm sorry.   We have small sail boats, speedboats, pedal boats, water ski equipment mnd kayaks if you bare interested.",NA,main,Graduated College,1022613,1667217900813,1667216878200,female,NA,157419,waterSport,3,main,0.7446666666666667,0.6006666666666667,0.5023333333333333
80,49,NA,disney-action,fullList,"No sorry.  Superman isnt available today...but you can see Spiderman, Ariel, Princess Elsa, Batman and the Hulk.",NA,main,Graduated College,1022613,1667217900813,1667216878200,female,NA,99278,disney,4,main,0.8253846153846154,0.7434615384615384,0.3388461538461539
80,49,NA,zoo-xl,competitor,There isn't a tiger in this zoo...but we can go and see the lion !!,NA,main,Graduated College,1022613,1667217900813,1667216878200,female,NA,73905,zoo,5,main,0.8553846153846153,0.6488461538461539,0.4826923076923077
80,49,NA,gym-yoga,competitor,No we don't do yoga classes. ..we do offer pirates classes though.,NA,main,Graduated College,1022613,1667217900813,1667216878200,female,NA,39642,gymActivities,7,main,0.62,0.5859090909090909,0.2913636363636364
80,49,NA,friendsActivities-boardGames,other,No I haven't got clue bit I've got lots of other games...have a look and see which ones you like,NA,main,Graduated College,1022613,1667217900813,1667216878200,female,NA,51138,friendsActivities,9,main,0.69,0.51,0.35857142857142854
80,49,NA,kidsActivities-crafts,fullList,"No there isn't.  We have got lot of other classes though....swimming , watercolour painting,  sewing, origami and acrobatics !",NA,main,Graduated College,1022613,1667217900813,1667216878200,female,NA,229081,kidsActivities,10,main,0.65875,0.6168750000000001,0.29125
83,42,NA,petAdoption-hamster,taciturn,We do not have any hamsters at the moment.,NA,main,Higher degree,249186,1667218497844,1667218248658,male,English,31604,petAdoption,1,main,0.7925,0.5428125,0.2003125
83,42,NA,dutyFree-sweets,taciturn,"We don't sell cookies, sorry.",NA,main,Higher degree,249186,1667218497844,1667218248658,male,English,15927,dutyFree,2,main,0.7011111111111111,0.6200000000000001,0.4216666666666667
83,42,NA,furniture-outdoors,taciturn,"Sorry, we don't have a deck chair.",NA,main,Higher degree,249186,1667218497844,1667218248658,male,English,40897,furniture,4,main,0.6264285714285714,0.5828571428571429,0.32285714285714284
83,42,NA,electronics-console,taciturn,"We have no PlayStations in stock, sorry.",NA,main,Higher degree,249186,1667218497844,1667218248658,male,English,17022,electronics,5,main,0.446875,0.43937499999999996,0.3746875
83,42,NA,movie-western,taciturn,We're not showing any Western's at the moment.,NA,main,Higher degree,249186,1667218497844,1667218248658,male,English,20146,movie,6,main,0.71,0.4760714285714286,0.3867857142857143
83,42,NA,plants-flowers,taciturn,"We haven't, sorry.",NA,main,Higher degree,249186,1667218497844,1667218248658,male,English,17376,plants,7,main,0.6066666666666667,0.5393333333333333,0.474
83,42,NA,touristInfo-clubbing,taciturn,There's no electronic music in town today.,NA,main,Higher degree,249186,1667218497844,1667218248658,male,English,22719,touristInfo,8,main,0.6145454545454545,0.4509090909090909,0.3190909090909091
83,42,NA,bar-tea,taciturn,"We don't serve sweet tea, sorry.",NA,main,Higher degree,249186,1667218497844,1667218248658,male,English,15024,bar,11,main,0.5914285714285714,0.5557142857142858,0.2414285714285714
90,40,NA,furniture-indoors,other,"Unfortunately not, but we do have other items on display.",NA,main,Graduated College,454429,1667218707469,1667218253040,female,English,69455,furniture,1,main,0.502,0.40700000000000003,0.31700000000000006
90,40,NA,disney-action,taciturn,Unfortunately Superman isn't available today.,NA,main,Graduated College,454429,1667218707469,1667218253040,female,English,30159,disney,3,main,0.8253846153846154,0.7434615384615384,0.3388461538461539
90,40,NA,electronics-laptop,competitor,"Unfortunately not, but we do have a MacBook Air.",NA,main,Graduated College,454429,1667218707469,1667218253040,female,English,75698,electronics,5,main,0.68,0.27375000000000005,0.21125
90,40,NA,kidsActivities-crafts,other,"Unfortunately not, but we have other classes you may be interested in.",NA,main,Graduated College,454429,1667218707469,1667218253040,female,English,38318,kidsActivities,6,main,0.65875,0.6168750000000001,0.29125
90,40,NA,plants-green,other,"Unfortunately not, but I've got other flowers and plants if you want to take a look?",NA,main,Graduated College,454429,1667218707469,1667218253040,female,English,48092,plants,7,main,0.5927777777777777,0.4822222222222222,0.4772222222222222
90,40,NA,gym-yoga,competitor,"Unfortunately not, but we do have a plates class if that's of any interest?",NA,main,Graduated College,454429,1667218707469,1667218253040,female,English,35613,gymActivities,9,main,0.62,0.5859090909090909,0.2913636363636364
90,40,NA,cafe-pie,competitor,"Unfortunately not, but we do have raspberry pie.",NA,main,Graduated College,454429,1667218707469,1667218253040,female,English,21690,cafe,10,main,0.726,0.33099999999999996,0.22899999999999998
90,40,NA,movie-fantasy,other,"Unfortunately not, but there are other options available if you wanted to try something else.",NA,main,Graduated College,454429,1667218707469,1667218253040,female,English,39183,movie,11,main,0.5854545454545454,0.46545454545454545,0.6022727272727273
88,33,NA,dutyFree-sweets,competitor,We sell gingerbread if that's any good.,NA,main,Graduated High-school,351454,1667218614550,1667218263096,female,English,41613,dutyFree,1,main,0.7011111111111111,0.6200000000000001,0.4216666666666667
88,33,NA,furniture-outdoors,taciturn,No sorry we don't have a deck chair,NA,main,Graduated High-school,351454,1667218614550,1667218263096,female,English,17457,furniture,2,main,0.6264285714285714,0.5828571428571429,0.32285714285714284
88,33,NA,plants-flowers,competitor,"No sorry, but I have tulips!",NA,main,Graduated High-school,351454,1667218614550,1667218263096,female,English,42053,plants,3,main,0.6066666666666667,0.5393333333333333,0.474
88,33,NA,books-fantasy,taciturn,"No sorry we don't sell fantasy novels.
",NA,main,Graduated High-school,351454,1667218614550,1667218263096,female,English,28144,books,4,main,0.6138461538461538,0.6207692307692307,0.36269230769230765
88,33,NA,gym-boxing,competitor,We offer kickboxing classes if that's any good?,NA,main,Graduated High-school,351454,1667218614550,1667218263096,female,English,20699,gymActivities,6,main,0.7658333333333333,0.6591666666666667,0.33458333333333334
88,33,NA,waterSport-muscle,competitor,"No sorry we don't rent canoes, but I can offer you a kayak instead if that would work?",NA,main,Graduated High-school,351454,1667218614550,1667218263096,female,English,40791,waterSport,7,main,0.71375,0.6059375,0.42000000000000004
88,33,1,touristInfo-clubbing,competitor,"I don't believe there is, but there is a club with a hip hop DJ.  Otherwise there is a rock concert, live jazz, street performers or a circus show if any of those interest you instead.",NA,main,Graduated High-school,351454,1667218614550,1667218263096,female,English,70604,touristInfo,8,main,0.6145454545454545,0.4509090909090909,0.3190909090909091
88,33,NA,movie-western,other,"No sorry we aren't playing a western today, but we have lots of other films on offer if something else would be of interest?",NA,main,Graduated High-school,351454,1667218614550,1667218263096,female,English,26119,movie,9,main,0.71,0.4760714285714286,0.3867857142857143
89,51,NA,furniture-outdoors,other,No i have none in stock but I do have these other chairs.,NA,main,Graduated High-school,403735,1667218643971,1667218240236,male,English,47715,furniture,1,main,0.6264285714285714,0.5828571428571429,0.32285714285714284
89,51,NA,touristInfo-clubbing,competitor,No but you make like the hip hop dj event,NA,main,Graduated High-school,403735,1667218643971,1667218240236,male,English,48541,touristInfo,4,main,0.6145454545454545,0.4509090909090909,0.3190909090909091
89,51,NA,bar-tea,competitor,No but can I interest you in some homemade lemonade,NA,main,Graduated High-school,403735,1667218643971,1667218240236,male,English,38127,bar,6,main,0.5914285714285714,0.5557142857142858,0.2414285714285714
89,51,NA,waterSport-muscle,competitor,Yes we have kayaks,NA,main,Graduated High-school,403735,1667218643971,1667218240236,male,English,34603,waterSport,7,main,0.71375,0.6059375,0.42000000000000004
89,51,NA,friendsActivities-videoEntertainment,sameCategory,No but I have a wii & playstation,NA,main,Graduated High-school,403735,1667218643971,1667218240236,male,English,34165,friendsActivities,8,main,0.4625,0.42291666666666666,0.2825
89,51,NA,bookingAgency-highClassAccommodation,other,No but we do have other options,NA,main,Graduated High-school,403735,1667218643971,1667218240236,male,English,41255,bookingAgency,9,main,0.6166666666666667,0.6683333333333334,0.09666666666666668
89,51,NA,kidsActivities-sports,sameCategory,No but we do have dancing & acrobatics classes,NA,main,Graduated High-school,403735,1667218643971,1667218240236,male,English,51076,kidsActivities,10,main,0.6115384615384616,0.5692307692307692,0.31346153846153846
89,51,NA,zoo-reptiles,other,No but there are other animals to see,NA,main,Graduated High-school,403735,1667218643971,1667218240236,male,English,26619,zoo,11,main,0.8405882352941176,0.655,0.4797058823529412
92,62,NA,petAdoption-hamster,sameCategory,No I'm sorry but we do have some beautiful gerbils and mice.,NA,main,Graduated College,520701,1667218817681,1667218296980,female,English,74520,petAdoption,1,main,0.7925,0.5428125,0.2003125
92,62,NA,disney-princess,other,Not today but we have lots of other great characters.,NA,main,Graduated College,520701,1667218817681,1667218296980,female,English,47783,disney,2,main,0.7328571428571429,0.6878571428571428,0.4442857142857143
92,62,NA,bookingAgency-highClassAccommodation,competitor,We have a suite in a four star or a luxury lodge.,NA,main,Graduated College,520701,1667218817681,1667218296980,female,English,83652,bookingAgency,3,main,0.6166666666666667,0.6683333333333334,0.09666666666666668
92,62,NA,touristInfo-clubbing,competitor,we do have a club event with a hip hop dj,NA,main,Graduated College,520701,1667218817681,1667218296980,female,English,68653,touristInfo,4,main,0.6145454545454545,0.4509090909090909,0.3190909090909091
92,62,1,cafe-pizza,competitor,Yes we have a cheese pizza.,NA,main,Graduated College,520701,1667218817681,1667218296980,female,English,35283,cafe,5,main,0.6307142857142857,0.3589285714285714,0.49964285714285717
92,62,NA,bar-tea,sameCategory,No I'm sorry we could offer soda or lemonade.,NA,main,Graduated College,520701,1667218817681,1667218296980,female,English,56466,bar,7,main,0.5914285714285714,0.5557142857142858,0.2414285714285714
92,62,NA,gym-boxing,competitor,We do have kick boxing,NA,main,Graduated College,520701,1667218817681,1667218296980,female,English,30990,gymActivities,8,main,0.7658333333333333,0.6591666666666667,0.33458333333333334
92,62,NA,clothing-winter,sameCategory,No but we have some sweatshirts or cosy hoodies.,NA,main,Graduated College,520701,1667218817681,1667218296980,female,English,38195,clothing,9,main,0.609,0.629,0.1855
96,51,NA,plants-green,taciturn,No sorry I do not.,NA,main,Graduated College,736212,1667218998155,1667218261943,male,English,44448,plants,1,main,0.5927777777777777,0.4822222222222222,0.4772222222222222
96,51,NA,bookingAgency-lowClassAccommodation,sameCategory,No sorry there isn't but I there is a room available in a B and B or there is the option to couch surf.,NA,main,Graduated College,736212,1667218998155,1667218261943,male,English,94498,bookingAgency,2,main,0.5255555555555556,0.683888888888889,0.09222222222222223
96,51,NA,clothing-beach,competitor,No sorry we don't have Hawaiian shirts just normal T Shirts,NA,main,Graduated College,736212,1667218998155,1667218261943,male,English,61936,clothing,3,main,0.525625,0.5387500000000001,0.304375
96,51,NA,books-romance,sameCategory,Sorry no but we do have romance novels and books for french love letters.,NA,main,Graduated College,736212,1667218998155,1667218261943,male,English,59342,books,4,main,0.75,0.5518181818181819,0.22954545454545455
96,51,NA,dutyFree-smokes,competitor,Sorry no but do have cigarettes,NA,main,Graduated College,736212,1667218998155,1667218261943,male,English,41205,dutyFree,5,main,0.6876923076923077,0.5176923076923077,0.31846153846153846
96,51,NA,bar-whiteWine,competitor,Sorry no but what about a Chardonnay instead.,NA,main,Graduated College,736212,1667218998155,1667218261943,male,English,49270,bar,6,main,0.694375,0.343125,0.2796875
96,51,NA,petAdoption-dogs,sameCategory,"Sorry no, but what about a Golden Retriever or a chocolate Lab?",NA,main,Graduated College,736212,1667218998155,1667218261943,male,English,69487,petAdoption,7,main,0.36727272727272725,0.5036363636363637,0.14954545454545454
96,51,NA,gym-yoga,taciturn,Sorry no we don't,NA,main,Graduated College,736212,1667218998155,1667218261943,male,English,28868,gymActivities,8,main,0.62,0.5859090909090909,0.2913636363636364
93,41,NA,electronics-console,taciturn,I'm afraid not.,NA,main,Higher degree,592941,1667218861635,1667218268694,male,NA,36938,electronics,1,main,0.446875,0.43937499999999996,0.3746875
93,41,1,dutyFree-sweets,other,we have something similar,NA,main,Higher degree,592941,1667218861635,1667218268694,male,NA,24487,dutyFree,6,main,0.7011111111111111,0.6200000000000001,0.4216666666666667
93,41,NA,plants-flowers,other,"I'm afraid I don't, but I have other flowers",NA,main,Higher degree,592941,1667218861635,1667218268694,male,NA,79153,plants,7,main,0.6066666666666667,0.5393333333333333,0.474
93,41,NA,bookingAgency-highClassAccommodation,other,"We have something similar, but not in 5 star",NA,main,Higher degree,592941,1667218861635,1667218268694,male,NA,41517,bookingAgency,8,main,0.6166666666666667,0.6683333333333334,0.09666666666666668
93,41,NA,gym-boxing,competitor,We offer kickboxing classes if that is any good for you?,NA,main,Higher degree,592941,1667218861635,1667218268694,male,NA,65777,gymActivities,9,main,0.7658333333333333,0.6591666666666667,0.33458333333333334
93,41,NA,waterSport-muscle,other,We dont rent canoes but we do have other options,NA,main,Higher degree,592941,1667218861635,1667218268694,male,NA,92745,waterSport,11,main,0.71375,0.6059375,0.42000000000000004
95,34,NA,books-fantasy,sameCategory,"Hello, we currently have science fiction and adventure novels which may interest you?",NA,main,Higher degree,648267,1667218918202,1667218269935,female,English,98760,books,2,main,0.6138461538461538,0.6207692307692307,0.36269230769230765
95,34,NA,zoo-reptiles,other,"There are no chameleons, there’s lots of other animals to see though!",NA,main,Higher degree,648267,1667218918202,1667218269935,female,English,76616,zoo,3,main,0.8405882352941176,0.655,0.4797058823529412
95,34,1,disney-princess,other,"Unfortunately Moana is away fishing today, is there any other people you would like to meet?",NA,main,Higher degree,648267,1667218918202,1667218269935,female,English,59807,disney,4,main,0.7328571428571429,0.6878571428571428,0.4442857142857143
95,34,NA,kidsActivities-sports,sameCategory,"No but there’s an athletics or dancing, would you be interested in those?",NA,main,Higher degree,648267,1667218918202,1667218269935,female,English,68411,kidsActivities,6,main,0.6115384615384616,0.5692307692307692,0.31346153846153846
95,34,NA,friendsActivities-videoEntertainment,sameCategory,No I have a Playstation and a wii though,NA,main,Higher degree,648267,1667218918202,1667218269935,female,English,49030,friendsActivities,7,main,0.4625,0.42291666666666666,0.2825
95,34,NA,petAdoption-hamster,sameCategory,"No we do not, only mice and gerbils at the moment sorry.",NA,main,Higher degree,648267,1667218918202,1667218269935,female,English,43128,petAdoption,9,main,0.7925,0.5428125,0.2003125
95,34,NA,cafe-pizza,competitor,"We have a cheese pizza, do you eat dairy?",NA,main,Higher degree,648267,1667218918202,1667218269935,female,English,40623,cafe,10,main,0.6307142857142857,0.3589285714285714,0.49964285714285717
95,34,NA,bar-tea,sameCategory,"No but we have iced coffee, soda and home made lemonade which is lovely, would you like any of those?",NA,main,Higher degree,648267,1667218918202,1667218269935,female,English,58807,bar,11,main,0.5914285714285714,0.5557142857142858,0.2414285714285714
97,36,NA,kidsActivities-crafts,sameCategory,"No there is not, but have a look at the other classes on offer. I think you might enjoy the sewing or oragami?
",NA,main,Higher degree,846575,1667219127224,1667218280649,female,English,96367,kidsActivities,1,main,0.65875,0.6168750000000001,0.29125
97,36,NA,touristInfo-childTheatre,competitor,There is a circus performance today that the kids will love!,NA,main,Higher degree,846575,1667219127224,1667218280649,female,English,45439,touristInfo,2,main,0.7173333333333334,0.29066666666666663,0.23266666666666666
97,36,NA,gym-yoga,competitor,No but we have Pilates classes that are great for strength and core.,NA,main,Higher degree,846575,1667219127224,1667218280649,female,English,49468,gymActivities,4,main,0.62,0.5859090909090909,0.2913636363636364
97,36,NA,bookingAgency-lowClassAccommodation,other,No but there are other options that will probably suit your budget.,NA,main,Higher degree,846575,1667219127224,1667218280649,female,English,217947,bookingAgency,7,main,0.5255555555555556,0.683888888888889,0.09222222222222223
97,36,NA,furniture-indoors,other,"No, but please have a look at some of the other options available.",NA,main,Higher degree,846575,1667219127224,1667218280649,female,English,34197,furniture,8,main,0.502,0.40700000000000003,0.31700000000000006
97,36,NA,cafe-pie,competitor,We have this delicious raspberry pie!,NA,main,Higher degree,846575,1667219127224,1667218280649,female,English,38975,cafe,9,main,0.726,0.33099999999999996,0.22899999999999998
97,36,NA,books-romance,competitor,We have this amazing book of love letters written in France.,NA,main,Higher degree,846575,1667219127224,1667218280649,female,English,32327,books,10,main,0.75,0.5518181818181819,0.22954545454545455
97,36,NA,waterSport-motor,competitor,We have some great water skis to hire.,NA,main,Higher degree,846575,1667219127224,1667218280649,female,English,90625,waterSport,11,main,0.7446666666666667,0.6006666666666667,0.5023333333333333
103,40,NA,kidsActivities-sports,taciturn,No there isn't,NA,main,Graduated College,362617,1667240241654,1667239879037,female,English,47683,kidsActivities,1,main,0.6115384615384616,0.5692307692307692,0.31346153846153846
103,40,NA,plants-flowers,taciturn,"No I don't, sorry.",NA,main,Graduated College,362617,1667240241654,1667239879037,female,English,105679,plants,2,main,0.6066666666666667,0.5393333333333333,0.474
103,40,NA,books-fantasy,taciturn,"No, I don't. Sorry",NA,main,Graduated College,362617,1667240241654,1667239879037,female,English,21377,books,3,main,0.6138461538461538,0.6207692307692307,0.36269230769230765
103,40,NA,zoo-reptiles,taciturn,we don't have chameleons,NA,main,Graduated College,362617,1667240241654,1667239879037,female,English,20178,zoo,4,main,0.8405882352941176,0.655,0.4797058823529412
103,40,NA,bookingAgency-highClassAccommodation,taciturn,no there isn't,NA,main,Graduated College,362617,1667240241654,1667239879037,female,English,23317,bookingAgency,5,main,0.6166666666666667,0.6683333333333334,0.09666666666666668
103,40,NA,gym-boxing,taciturn,no we don't,NA,main,Graduated College,362617,1667240241654,1667239879037,female,English,13453,gymActivities,7,main,0.7658333333333333,0.6591666666666667,0.33458333333333334
103,40,NA,bar-tea,taciturn,no we don't,NA,main,Graduated College,362617,1667240241654,1667239879037,female,English,13865,bar,8,main,0.5914285714285714,0.5557142857142858,0.2414285714285714
103,40,NA,touristInfo-clubbing,competitor,"no, just a club event with a hip hop DJ",NA,main,Graduated College,362617,1667240241654,1667239879037,female,English,46383,touristInfo,11,main,0.6145454545454545,0.4509090909090909,0.3190909090909091
104,20,NA,electronics-laptop,taciturn,No I do not,NA,main,Graduated High-school,366256,1667240244906,1667239878650,female,English,18196,electronics,1,main,0.68,0.27375000000000005,0.21125
104,20,NA,clothing-beach,taciturn,No I do not,NA,main,Graduated High-school,366256,1667240244906,1667239878650,female,English,14390,clothing,2,main,0.525625,0.5387500000000001,0.304375
104,20,NA,waterSport-motor,taciturn,No we don't,NA,main,Graduated High-school,366256,1667240244906,1667239878650,female,English,49136,waterSport,4,main,0.7446666666666667,0.6006666666666667,0.5023333333333333
104,20,NA,cafe-pie,taciturn,No we don't,NA,main,Graduated High-school,366256,1667240244906,1667239878650,female,English,89137,cafe,5,main,0.726,0.33099999999999996,0.22899999999999998
104,20,NA,furniture-indoors,taciturn,No we don't,NA,main,Graduated High-school,366256,1667240244906,1667239878650,female,English,9960,furniture,6,main,0.502,0.40700000000000003,0.31700000000000006
104,20,NA,gym-yoga,taciturn,No we dont,NA,main,Graduated High-school,366256,1667240244906,1667239878650,female,English,62401,gymActivities,7,main,0.62,0.5859090909090909,0.2913636363636364
104,20,NA,kidsActivities-crafts,taciturn,"No
",NA,main,Graduated High-school,366256,1667240244906,1667239878650,female,English,11010,kidsActivities,10,main,0.65875,0.6168750000000001,0.29125
104,20,NA,petAdoption-dogs,taciturn,"No
",NA,main,Graduated High-school,366256,1667240244906,1667239878650,female,English,9309,petAdoption,11,main,0.36727272727272725,0.5036363636363637,0.14954545454545454
105,37,NA,bar-whiteWine,competitor,"No sorry, but we do have Chardonnay",NA,main,Graduated High-school,485605,1667240354134,1667239868529,female,English,29781,bar,1,main,0.694375,0.343125,0.2796875
105,37,NA,dutyFree-smokes,competitor,"Only cigarettes, sorry",NA,main,Graduated High-school,485605,1667240354134,1667239868529,female,English,48153,dutyFree,3,main,0.6876923076923077,0.5176923076923077,0.31846153846153846
105,37,1,gym-yoga,other,"No, sorry, but here is what we do offer",NA,main,Graduated High-school,485605,1667240354134,1667239868529,female,English,29495,gymActivities,4,main,0.62,0.5859090909090909,0.2913636363636364
105,37,NA,waterSport-motor,taciturn,No sorry,NA,main,Graduated High-school,485605,1667240354134,1667239868529,female,English,76399,waterSport,5,main,0.7446666666666667,0.6006666666666667,0.5023333333333333
105,37,NA,petAdoption-dogs,sameCategory,"Currently no Dalmatians, but we do have some gorgeous chocolate labs and golden retrievers.",NA,main,Graduated High-school,485605,1667240354134,1667239868529,female,English,74128,petAdoption,7,main,0.36727272727272725,0.5036363636363637,0.14954545454545454
105,37,NA,clothing-beach,sameCategory,"Sorry no Hawaiian shirts at the minute, but please check out our stock of t-shits and tank tops, I am sure there will be something you will like.",NA,main,Graduated High-school,485605,1667240354134,1667239868529,female,English,74431,clothing,8,main,0.525625,0.5387500000000001,0.304375
105,37,NA,movie-fantasy,taciturn,"No not today, sorry",NA,main,Graduated High-school,485605,1667240354134,1667239868529,female,English,22575,movie,10,main,0.5854545454545454,0.46545454545454545,0.6022727272727273
105,37,NA,disney-action,sameCategory,"Not today sorry, but Spiderman, Batman and Hulk are here",NA,main,Graduated High-school,485605,1667240354134,1667239868529,female,English,47329,disney,11,main,0.8253846153846154,0.7434615384615384,0.3388461538461539
108,29,1,books-romance,taciturn,"I'm sorry, we don't currently. Would you like me to order some?",NA,main,Graduated College,562006,1667240441550,1667239879544,female,English,94747,books,2,main,0.75,0.5518181818181819,0.22954545454545455
108,29,NA,disney-action,competitor,"Superman's currently out fighting crime, however Batman is excited you meet you.",NA,main,Graduated College,562006,1667240441550,1667239879544,female,English,87204,disney,3,main,0.8253846153846154,0.7434615384615384,0.3388461538461539
108,29,NA,dutyFree-smokes,competitor,"I'm afraid not, we do sell cigarettes, however.",NA,main,Graduated College,562006,1667240441550,1667239879544,female,English,38141,dutyFree,4,main,0.6876923076923077,0.5176923076923077,0.31846153846153846
108,29,NA,bar-whiteWine,competitor,"Sorry, ma'am, however we do have a lovely bottle of chardonnay if you're willing to try.",NA,main,Graduated College,562006,1667240441550,1667239879544,female,English,49068,bar,6,main,0.694375,0.343125,0.2796875
108,29,1,kidsActivities-crafts,other,"No, here is a list of available classes",NA,main,Graduated College,562006,1667240441550,1667239879544,female,English,18334,kidsActivities,7,main,0.65875,0.6168750000000001,0.29125
108,29,NA,zoo-xl,other,"I don't think there are tigers at this zoo, but there's still plenty of other animals to see",NA,main,Graduated College,562006,1667240441550,1667239879544,female,English,46707,zoo,8,main,0.8553846153846153,0.6488461538461539,0.4826923076923077
108,29,NA,clothing-beach,taciturn,Not currently,NA,main,Graduated College,562006,1667240441550,1667239879544,female,English,23356,clothing,9,main,0.525625,0.5387500000000001,0.304375
107,51,1,furniture-indoors,competitor,"we have e rocking chair , thats as close as we have if thats any good ? or a sofa",ran well,main,Graduated High-school,538631,1667240410521,1667239871890,male,English,85424,furniture,1,main,0.502,0.40700000000000003,0.31700000000000006
107,51,NA,movie-fantasy,taciturn,not today sorry,ran well,main,Graduated High-school,538631,1667240410521,1667239871890,male,English,31623,movie,2,main,0.5854545454545454,0.46545454545454545,0.6022727272727273
107,51,NA,clothing-beach,taciturn,no sorry,ran well,main,Graduated High-school,538631,1667240410521,1667239871890,male,English,28216,clothing,3,main,0.525625,0.5387500000000001,0.304375
107,51,NA,plants-green,competitor,no sorry but i do have agave,ran well,main,Graduated High-school,538631,1667240410521,1667239871890,male,English,54152,plants,4,main,0.5927777777777777,0.4822222222222222,0.4772222222222222
107,51,NA,books-romance,competitor,i have French love letters but no poems sorry,ran well,main,Graduated High-school,538631,1667240410521,1667239871890,male,English,40215,books,5,main,0.75,0.5518181818181819,0.22954545454545455
107,51,NA,bookingAgency-lowClassAccommodation,sameCategory,cheap BB or couch surfing ?,ran well,main,Graduated High-school,538631,1667240410521,1667239871890,male,English,61823,bookingAgency,6,main,0.5255555555555556,0.683888888888889,0.09222222222222223
107,51,NA,bar-whiteWine,competitor,no Chardonnay only sorry,ran well,main,Graduated High-school,538631,1667240410521,1667239871890,male,English,50983,bar,8,main,0.694375,0.343125,0.2796875
107,51,1,kidsActivities-crafts,competitor,no but we have many others like painting,ran well,main,Graduated High-school,538631,1667240410521,1667239871890,male,English,48249,kidsActivities,9,main,0.65875,0.6168750000000001,0.29125
133,19,NA,waterSport-motor,competitor,We rent water ski equipment,N/A,main,Graduated College,225287,1667310814122,1667310588835,male,English,35004,waterSport,1,main,0.7446666666666667,0.6006666666666667,0.5023333333333333
133,19,NA,bookingAgency-lowClassAccommodation,taciturn,No there is not,N/A,main,Graduated College,225287,1667310814122,1667310588835,male,English,29617,bookingAgency,3,main,0.5255555555555556,0.683888888888889,0.09222222222222223
133,19,NA,clothing-beach,taciturn,No,N/A,main,Graduated College,225287,1667310814122,1667310588835,male,English,8831,clothing,4,main,0.525625,0.5387500000000001,0.304375
133,19,NA,plants-green,taciturn,"No we don't, sorry",N/A,main,Graduated College,225287,1667310814122,1667310588835,male,English,16620,plants,5,main,0.5927777777777777,0.4822222222222222,0.4772222222222222
133,19,NA,furniture-indoors,taciturn,No,N/A,main,Graduated College,225287,1667310814122,1667310588835,male,English,26974,furniture,6,main,0.502,0.40700000000000003,0.31700000000000006
133,19,NA,touristInfo-childTheatre,taciturn,No,N/A,main,Graduated College,225287,1667310814122,1667310588835,male,English,11821,touristInfo,9,main,0.7173333333333334,0.29066666666666663,0.23266666666666666
133,19,NA,petAdoption-dogs,taciturn,No,N/A,main,Graduated College,225287,1667310814122,1667310588835,male,English,10877,petAdoption,10,main,0.36727272727272725,0.5036363636363637,0.14954545454545454
133,19,NA,friendsActivities-boardGames,taciturn,No,N/A,main,Graduated College,225287,1667310814122,1667310588835,male,English,12257,friendsActivities,11,main,0.69,0.51,0.35857142857142854
136,35,NA,petAdoption-dogs,sameCategory,"No sorry, we only have terriers, golden retrievers and chocolate labs.",NA,main,Graduated High-school,327387,1667310893620,1667310566233,male,English,58675,petAdoption,1,main,0.36727272727272725,0.5036363636363637,0.14954545454545454
136,35,NA,touristInfo-childTheatre,competitor,Yes we have a Circus show for you.,NA,main,Graduated High-school,327387,1667310893620,1667310566233,male,English,39561,touristInfo,2,main,0.7173333333333334,0.29066666666666663,0.23266666666666666
136,35,NA,friendsActivities-boardGames,taciturn,No sorry,NA,main,Graduated High-school,327387,1667310893620,1667310566233,male,English,14350,friendsActivities,4,main,0.69,0.51,0.35857142857142854
136,35,NA,disney-action,taciturn,Sorry we superman isn't here today,NA,main,Graduated High-school,327387,1667310893620,1667310566233,male,English,26067,disney,6,main,0.8253846153846154,0.7434615384615384,0.3388461538461539
136,35,NA,waterSport-motor,taciturn,No sorry we don't,NA,main,Graduated High-school,327387,1667310893620,1667310566233,male,English,22766,waterSport,7,main,0.7446666666666667,0.6006666666666667,0.5023333333333333
136,35,NA,bar-whiteWine,competitor,No sorry but we have Chardonnay,NA,main,Graduated High-school,327387,1667310893620,1667310566233,male,English,31532,bar,8,main,0.694375,0.343125,0.2796875
136,35,NA,books-romance,competitor,No sorry but we have romance novels,NA,main,Graduated High-school,327387,1667310893620,1667310566233,male,English,20750,books,9,main,0.75,0.5518181818181819,0.22954545454545455
136,35,NA,movie-fantasy,taciturn,No sorry not today,NA,main,Graduated High-school,327387,1667310893620,1667310566233,male,English,16767,movie,10,main,0.5854545454545454,0.46545454545454545,0.6022727272727273
139,42,1,furniture-indoors,other,I do not have one on display but I can see if we have one in the back of the store,NA,main,Graduated College,365151,1667310941530,1667310576379,female,English,56674,furniture,1,main,0.502,0.40700000000000003,0.31700000000000006
139,42,NA,touristInfo-childTheatre,competitor,Im affraid not. There is however a circus show today.,NA,main,Graduated College,365151,1667310941530,1667310576379,female,English,43958,touristInfo,3,main,0.7173333333333334,0.29066666666666663,0.23266666666666666
139,42,NA,gym-yoga,sameCategory,"Unfortunately we do not. We do however offer aerobics, zumba and pilates",NA,main,Graduated College,365151,1667310941530,1667310576379,female,English,40838,gymActivities,4,main,0.62,0.5859090909090909,0.2913636363636364
139,42,NA,kidsActivities-crafts,taciturn,Im sorry we do not have a potter class.,NA,main,Graduated College,365151,1667310941530,1667310576379,female,English,26351,kidsActivities,5,main,0.65875,0.6168750000000001,0.29125
139,42,NA,movie-fantasy,taciturn,Im sorry but today we are not showing any fantasy movies,NA,main,Graduated College,365151,1667310941530,1667310576379,female,English,24878,movie,7,main,0.5854545454545454,0.46545454545454545,0.6022727272727273
139,42,NA,electronics-laptop,competitor,We do not have a macbook Pro but we do currently have a macbook Air,NA,main,Graduated College,365151,1667310941530,1667310576379,female,English,31278,electronics,8,main,0.68,0.27375000000000005,0.21125
139,42,NA,zoo-xl,taciturn,Im sorry but there is not a tiger.,NA,main,Graduated College,365151,1667310941530,1667310576379,female,English,24135,zoo,9,main,0.8553846153846153,0.6488461538461539,0.4826923076923077
139,42,NA,dutyFree-smokes,competitor,Im sorry but we do not have any cigars. We only have cigarettes.,NA,main,Graduated College,365151,1667310941530,1667310576379,female,English,25511,dutyFree,11,main,0.6876923076923077,0.5176923076923077,0.31846153846153846
148,34,NA,books-fantasy,taciturn,"We do not, I'm sorry!",NA,main,Graduated High-school,443610,1667311022151,1667310578541,female,English,29788,books,2,main,0.6138461538461538,0.6207692307692307,0.36269230769230765
148,34,NA,disney-princess,taciturn,"Moana is out sailing today, I'm sorry!",NA,main,Graduated High-school,443610,1667311022151,1667310578541,female,English,24980,disney,3,main,0.7328571428571429,0.6878571428571428,0.4442857142857143
148,34,NA,dutyFree-sweets,competitor,"Unfortunately not, but you might like the gingerbread.",NA,main,Graduated High-school,443610,1667311022151,1667310578541,female,English,57937,dutyFree,4,main,0.7011111111111111,0.6200000000000001,0.4216666666666667
148,34,NA,petAdoption-hamster,competitor,"No we don't, but gerbils are comparable pets, and more friendly and interactive. Let me know if you'd like to learn more about them!",NA,main,Graduated High-school,443610,1667311022151,1667310578541,female,English,46666,petAdoption,5,main,0.7925,0.5428125,0.2003125
148,34,NA,furniture-outdoors,competitor,"We don't, but we do have a wicker back cane chair if you'd like to see that",NA,main,Graduated High-school,443610,1667311022151,1667310578541,female,English,44627,furniture,6,main,0.6264285714285714,0.5828571428571429,0.32285714285714284
148,34,NA,cafe-pizza,competitor,"Unfortunately not, but we do have plain cheese if you're avoiding meat.",NA,main,Graduated High-school,443610,1667311022151,1667310578541,female,English,74764,cafe,7,main,0.6307142857142857,0.3589285714285714,0.49964285714285717
148,34,1,bar-tea,other,"We don't, is there something else I could offer you?",NA,main,Graduated High-school,443610,1667311022151,1667310578541,female,English,32152,bar,9,main,0.5914285714285714,0.5557142857142858,0.2414285714285714
148,34,NA,gym-boxing,competitor,"No, but our kickboxing class is awesome if you'd like to try that instead.",NA,main,Graduated High-school,443610,1667311022151,1667310578541,female,English,35078,gymActivities,10,main,0.7658333333333333,0.6591666666666667,0.33458333333333334
138,48,NA,disney-action,other,"Not today, sorry. But we have got lots of other characters available.",NA,main,Higher degree,355196,1667310920159,1667310564963,female,English,44466,disney,2,main,0.8253846153846154,0.7434615384615384,0.3388461538461539
138,48,NA,dutyFree-smokes,other,Sorry we do not sell that item. We do however sell other items.,NA,main,Higher degree,355196,1667310920159,1667310564963,female,English,35552,dutyFree,3,main,0.6876923076923077,0.5176923076923077,0.31846153846153846
138,48,NA,electronics-laptop,competitor,"Sorry, the only Apple product we have today is a Macbook Air.",NA,main,Higher degree,355196,1667310920159,1667310564963,female,English,32869,electronics,4,main,0.68,0.27375000000000005,0.21125
138,48,1,zoo-xl,other,"The map says there isn't a tiger, but we could ask a member of staff",NA,main,Higher degree,355196,1667310920159,1667310564963,female,English,30652,zoo,5,main,0.8553846153846153,0.6488461538461539,0.4826923076923077
138,48,NA,gym-yoga,sameCategory,"Sorry we don't at the moment. The classes we offer are pilates, zumba and aerobics.",NA,main,Higher degree,355196,1667310920159,1667310564963,female,English,41229,gymActivities,6,main,0.62,0.5859090909090909,0.2913636363636364
138,48,NA,furniture-indoors,other,"We don't have any armchairs, would you like to look at the other chairs we have?",NA,main,Higher degree,355196,1667310920159,1667310564963,female,English,32422,furniture,7,main,0.502,0.40700000000000003,0.31700000000000006
138,48,1,movie-fantasy,taciturn,We do not have any fantasy programmed. Are you interested in any other genres?,NA,main,Higher degree,355196,1667310920159,1667310564963,female,English,26934,movie,9,main,0.5854545454545454,0.46545454545454545,0.6022727272727273
138,48,NA,waterSport-motor,competitor,We don't do jet skis. Have you tried water skiing?,NA,main,Higher degree,355196,1667310920159,1667310564963,female,English,30571,waterSport,10,main,0.7446666666666667,0.6006666666666667,0.5023333333333333
167,56,NA,petAdoption-dogs,sameCategory,"Hi there, awww sorry but we don't have any dalmatians. We do however have a gorgeous golden retriever and terriers - would you like to have a little look at them before you go?",NA,main,Graduated High-school,1039270,1667311622930,1667310583660,female,English,125558,petAdoption,3,main,0.36727272727272725,0.5036363636363637,0.14954545454545454
167,56,1,clothing-beach,other,"Hiya, so sorry but we don't have any at the moment. Have you tried the charity shops on the high street?",NA,main,Graduated High-school,1039270,1667311622930,1667310583660,female,English,101001,clothing,4,main,0.525625,0.5387500000000001,0.304375
167,56,NA,electronics-laptop,competitor,"Hi there, sorry I don't at the minute although I do have the MacBook Air. Failing that if I could take your details then I can always contact you if one comes in.",NA,main,Graduated High-school,1039270,1667311622930,1667310583660,female,English,215148,electronics,5,main,0.68,0.27375000000000005,0.21125
167,56,NA,dutyFree-smokes,taciturn,Sorry we don't sell them.,NA,main,Graduated High-school,1039270,1667311622930,1667310583660,female,English,45742,dutyFree,6,main,0.6876923076923077,0.5176923076923077,0.31846153846153846
167,56,1,books-romance,other,Sorry we don't have any but I can order some in for you if you'd like.,NA,main,Graduated High-school,1039270,1667311622930,1667310583660,female,English,176069,books,7,main,0.75,0.5518181818181819,0.22954545454545455
167,56,1,furniture-indoors,other,Sorry we don't currently have one. I'll keep an eye out for you though.,NA,main,Graduated High-school,1039270,1667311622930,1667310583660,female,English,52294,furniture,9,main,0.502,0.40700000000000003,0.31700000000000006
167,56,NA,gym-yoga,competitor,"Sorry no we don't have yoga classes but have you tried the pilates classes, they're very relaxing too.",NA,main,Graduated High-school,1039270,1667311622930,1667310583660,female,English,66189,gymActivities,11,main,0.62,0.5859090909090909,0.2913636363636364
132,27,NA,disney-princess,taciturn,No she isn't here today.,NA,main,Higher degree,201857,1667310768263,1667310566406,male,English,16123,disney,2,main,0.7328571428571429,0.6878571428571428,0.4442857142857143
132,27,NA,cafe-pizza,sameCategory,"We don't, but we have cheese or pepperoni.",NA,main,Higher degree,201857,1667310768263,1667310566406,male,English,16494,cafe,3,main,0.6307142857142857,0.3589285714285714,0.49964285714285717
132,27,NA,bar-tea,taciturn,No we don't sorry.,NA,main,Higher degree,201857,1667310768263,1667310566406,male,English,11728,bar,4,main,0.5914285714285714,0.5557142857142858,0.2414285714285714
132,27,NA,books-fantasy,sameCategory,"No, but we have science fiction or adventure novels",NA,main,Higher degree,201857,1667310768263,1667310566406,male,English,35517,books,5,main,0.6138461538461538,0.6207692307692307,0.36269230769230765
132,27,NA,waterSport-muscle,taciturn,"No, sorry.",NA,main,Higher degree,201857,1667310768263,1667310566406,male,English,11264,waterSport,6,main,0.71375,0.6059375,0.42000000000000004
132,27,NA,gym-boxing,competitor,"No, but we offer kickboxing.",NA,main,Higher degree,201857,1667310768263,1667310566406,male,English,11881,gymActivities,7,main,0.7658333333333333,0.6591666666666667,0.33458333333333334
132,27,NA,touristInfo-clubbing,competitor,"Not today, sorry, but there's a club event with a hip-hop dj.",NA,main,Higher degree,201857,1667310768263,1667310566406,male,English,26520,touristInfo,8,main,0.6145454545454545,0.4509090909090909,0.3190909090909091
132,27,NA,dutyFree-sweets,competitor,We have gingerbread if that would work?,NA,main,Higher degree,201857,1667310768263,1667310566406,male,English,19396,dutyFree,9,main,0.7011111111111111,0.6200000000000001,0.4216666666666667
142,45,NA,waterSport-muscle,competitor,We don't rent canoes however we do rent kayaks.,NA,main,Graduated College,387087,1667310964561,1667310577474,female,English,62620,waterSport,1,main,0.71375,0.6059375,0.42000000000000004
142,45,NA,books-fantasy,competitor,Currently we don't have any fantasy novels but we do have science fiction novels if those would be of interest?,NA,main,Graduated College,387087,1667310964561,1667310577474,female,English,47872,books,2,main,0.6138461538461538,0.6207692307692307,0.36269230769230765
142,45,NA,zoo-reptiles,competitor,There isn't a chameleon but there are iguanas which are similar,NA,main,Graduated College,387087,1667310964561,1667310577474,female,English,29181,zoo,3,main,0.8405882352941176,0.655,0.4797058823529412
142,45,NA,petAdoption-hamster,sameCategory,"No hamsters but we have other rodents like gerbils, mice and ferrets",NA,main,Graduated College,387087,1667310964561,1667310577474,female,English,29852,petAdoption,6,main,0.7925,0.5428125,0.2003125
142,45,NA,electronics-console,taciturn,Unfortunately not today,NA,main,Graduated College,387087,1667310964561,1667310577474,female,English,28758,electronics,8,main,0.446875,0.43937499999999996,0.3746875
142,45,NA,plants-flowers,sameCategory,I don't have peonies but I do have a rose bush or sunflowers,NA,main,Graduated College,387087,1667310964561,1667310577474,female,English,34492,plants,9,main,0.6066666666666667,0.5393333333333333,0.474
142,45,NA,furniture-outdoors,other,I don't have a deck chair but I have some other items which may be of interest,NA,main,Graduated College,387087,1667310964561,1667310577474,female,English,45052,furniture,10,main,0.6264285714285714,0.5828571428571429,0.32285714285714284
142,45,NA,bar-tea,other,Unfortunately I don't have sweet tea but I have some other options which may interest you,NA,main,Graduated College,387087,1667310964561,1667310577474,female,English,27274,bar,11,main,0.5914285714285714,0.5557142857142858,0.2414285714285714
147,33,NA,zoo-xl,competitor,"I don't think they have tigers here I'm afraid, shall we go and see the Lion instead?",NA,main,Graduated High-school,433359,1667311005516,1667310572157,male,English,39329,zoo,1,main,0.8553846153846153,0.6488461538461539,0.4826923076923077
147,33,NA,movie-fantasy,fullList,"Sorry we haven't got a fantasy movie today. We've got an adventure movie, an animated film, a comedy, a horror movie or a musical.",NA,main,Graduated High-school,433359,1667311005516,1667310572157,male,English,37946,movie,2,main,0.5854545454545454,0.46545454545454545,0.6022727272727273
147,33,NA,plants-green,other,"Sorry I don't have an aloe vera at the moment. You can have a look at what I have got, or I can let you know when I next have an aloe vera plant?",NA,main,Graduated High-school,433359,1667311005516,1667310572157,male,English,43558,plants,3,main,0.5927777777777777,0.4822222222222222,0.4772222222222222
147,33,NA,touristInfo-childTheatre,competitor,Sorry there isn't a theatre performance today. There is a circus show available if you are interested though?,NA,main,Graduated High-school,433359,1667311005516,1667310572157,male,English,29277,touristInfo,5,main,0.7173333333333334,0.29066666666666663,0.23266666666666666
147,33,NA,waterSport-motor,fullList,"Hi, we don't rent jet skis unfortunately. We have water ski's, sailboats, pedal boats, speedboats or kayaks available though.",NA,main,Graduated High-school,433359,1667311005516,1667310572157,male,English,35560,waterSport,6,main,0.7446666666666667,0.6006666666666667,0.5023333333333333
147,33,NA,dutyFree-smokes,competitor,"Sorry we don't sell cigars, we only have cigarettes available.",NA,main,Graduated High-school,433359,1667311005516,1667310572157,male,English,24093,dutyFree,7,main,0.6876923076923077,0.5176923076923077,0.31846153846153846
147,33,NA,clothing-beach,sameCategory,"Hi, sorry we don't stock Haiwaiian shirts, we have t-shirts or tank tops available.",NA,main,Graduated High-school,433359,1667311005516,1667310572157,male,English,27462,clothing,9,main,0.525625,0.5387500000000001,0.304375
147,33,NA,books-romance,sameCategory,"Hi, sorry we don't have love poems, only French love letters or romance novels.",NA,main,Graduated High-school,433359,1667311005516,1667310572157,male,English,21685,books,10,main,0.75,0.5518181818181819,0.22954545454545455
134,39,NA,gym-yoga,taciturn,I'm afraid not.,Thank you. I hope the data is useful.,main,Graduated College,259231,1667310832918,1667310573687,male,English,25230,gymActivities,2,main,0.62,0.5859090909090909,0.2913636363636364
134,39,NA,kidsActivities-crafts,taciturn,I'm afraid not,Thank you. I hope the data is useful.,main,Graduated College,259231,1667310832918,1667310573687,male,English,19848,kidsActivities,3,main,0.65875,0.6168750000000001,0.29125
134,39,NA,friendsActivities-boardGames,taciturn,Nope,Thank you. I hope the data is useful.,main,Graduated College,259231,1667310832918,1667310573687,male,English,23214,friendsActivities,4,main,0.69,0.51,0.35857142857142854
134,39,NA,waterSport-motor,competitor,We have water skis,Thank you. I hope the data is useful.,main,Graduated College,259231,1667310832918,1667310573687,male,English,23012,waterSport,6,main,0.7446666666666667,0.6006666666666667,0.5023333333333333
134,39,NA,electronics-laptop,competitor,No but we have the air,Thank you. I hope the data is useful.,main,Graduated College,259231,1667310832918,1667310573687,male,English,22543,electronics,9,main,0.68,0.27375000000000005,0.21125
134,39,NA,cafe-pie,competitor,No but we have raspberry pie,Thank you. I hope the data is useful.,main,Graduated College,259231,1667310832918,1667310573687,male,English,20734,cafe,10,main,0.726,0.33099999999999996,0.22899999999999998
134,39,NA,movie-fantasy,taciturn,I'm afraid not,Thank you. I hope the data is useful.,main,Graduated College,259231,1667310832918,1667310573687,male,English,14867,movie,11,main,0.5854545454545454,0.46545454545454545,0.6022727272727273
135,49,NA,plants-flowers,taciturn,"No, I don't.",NA,main,Graduated High-school,303512,1667310885944,1667310582432,male,English,49977,plants,2,main,0.6066666666666667,0.5393333333333333,0.474
135,49,NA,dutyFree-sweets,competitor,"No, but I have gingerbread.",NA,main,Graduated High-school,303512,1667310885944,1667310582432,male,English,29893,dutyFree,3,main,0.7011111111111111,0.6200000000000001,0.4216666666666667
135,49,NA,gym-boxing,competitor,Only kickboxing classes.,NA,main,Graduated High-school,303512,1667310885944,1667310582432,male,English,19740,gymActivities,4,main,0.7658333333333333,0.6591666666666667,0.33458333333333334
135,49,NA,movie-western,taciturn,"No, we're not.",NA,main,Graduated High-school,303512,1667310885944,1667310582432,male,English,16288,movie,6,main,0.71,0.4760714285714286,0.3867857142857143
135,49,NA,disney-princess,taciturn,"No, not today.",NA,main,Graduated High-school,303512,1667310885944,1667310582432,male,English,15091,disney,7,main,0.7328571428571429,0.6878571428571428,0.4442857142857143
135,49,NA,books-fantasy,taciturn,Not currently.,NA,main,Graduated High-school,303512,1667310885944,1667310582432,male,English,15862,books,9,main,0.6138461538461538,0.6207692307692307,0.36269230769230765
135,49,1,zoo-reptiles,other,"I don't think we can, but I'll ask if there are any not on the map.",NA,main,Graduated High-school,303512,1667310885944,1667310582432,male,English,42491,zoo,10,main,0.8405882352941176,0.655,0.4797058823529412
135,49,NA,furniture-outdoors,taciturn,"No, not at the current moment.",NA,main,Graduated High-school,303512,1667310885944,1667310582432,male,English,22373,furniture,11,main,0.6264285714285714,0.5828571428571429,0.32285714285714284
159,72,NA,disney-princess,taciturn,sorry Moana isnt available today,none,main,Graduated High-school,638276,1667311208348,1667310570072,male,english,52699,disney,1,main,0.7328571428571429,0.6878571428571428,0.4442857142857143
159,72,NA,clothing-winter,other,sorry we dont have any sweaters would you like to look at our other stock,none,main,Graduated High-school,638276,1667311208348,1667310570072,male,english,74775,clothing,2,main,0.609,0.629,0.1855
159,72,NA,cafe-pizza,taciturn,srry its not on the menu today,none,main,Graduated High-school,638276,1667311208348,1667310570072,male,english,38382,cafe,3,main,0.6307142857142857,0.3589285714285714,0.49964285714285717
159,72,NA,zoo-reptiles,taciturn,there are not any chameleons on the map,none,main,Graduated High-school,638276,1667311208348,1667310570072,male,english,61873,zoo,6,main,0.8405882352941176,0.655,0.4797058823529412
159,72,NA,friendsActivities-videoEntertainment,other,sorry guys but i do have plenty other ideas,none,main,Graduated High-school,638276,1667311208348,1667310570072,male,english,50601,friendsActivities,7,main,0.4625,0.42291666666666666,0.2825
159,72,NA,plants-flowers,taciturn,i am sorry i dont,none,main,Graduated High-school,638276,1667311208348,1667310570072,male,english,44320,plants,9,main,0.6066666666666667,0.5393333333333333,0.474
159,72,NA,bar-tea,taciturn,i am so sorry sweet tea is not available,none,main,Graduated High-school,638276,1667311208348,1667310570072,male,english,57317,bar,10,main,0.5914285714285714,0.5557142857142858,0.2414285714285714
159,72,NA,petAdoption-hamster,taciturn,sorry not at the moment,none,main,Graduated High-school,638276,1667311208348,1667310570072,male,english,125682,petAdoption,11,main,0.7925,0.5428125,0.2003125
137,30,NA,zoo-reptiles,taciturn,"No, unfortunately there aren't any chameleons in this zoo",NA,main,Graduated College,310723,1667310893738,1667310583015,male,English,33559,zoo,1,main,0.8405882352941176,0.655,0.4797058823529412
137,30,NA,plants-flowers,taciturn,"Sorry, i don't grow any of those",NA,main,Graduated College,310723,1667310893738,1667310583015,male,English,33754,plants,3,main,0.6066666666666667,0.5393333333333333,0.474
137,30,NA,waterSport-muscle,other,"We don't, but we have other equipment for rent if you're interested",NA,main,Graduated College,310723,1667310893738,1667310583015,male,English,32890,waterSport,4,main,0.71375,0.6059375,0.42000000000000004
137,30,NA,dutyFree-sweets,taciturn,"Sorry, we dont unfortunately",NA,main,Graduated College,310723,1667310893738,1667310583015,male,English,23849,dutyFree,6,main,0.7011111111111111,0.6200000000000001,0.4216666666666667
137,30,NA,gym-boxing,competitor,"We don't, however we do offer kickboxing if youre interested",NA,main,Graduated College,310723,1667310893738,1667310583015,male,English,22778,gymActivities,7,main,0.7658333333333333,0.6591666666666667,0.33458333333333334
137,30,NA,clothing-winter,competitor,"We have sweatshirts, but no wool sweaters unfortunately",NA,main,Graduated College,310723,1667310893738,1667310583015,male,English,26921,clothing,8,main,0.609,0.629,0.1855
137,30,NA,touristInfo-clubbing,taciturn,Unfortunately there isn't today,NA,main,Graduated College,310723,1667310893738,1667310583015,male,English,34646,touristInfo,10,main,0.6145454545454545,0.4509090909090909,0.3190909090909091
137,30,NA,bookingAgency-highClassAccommodation,competitor,"No, but there is a four star hotel with a room available if you're interested",NA,main,Graduated College,310723,1667310893738,1667310583015,male,English,38952,bookingAgency,11,main,0.6166666666666667,0.6683333333333334,0.09666666666666668
160,61,NA,friendsActivities-videoEntertainment,fullList,"Unfortunately not but I have other interesting exciting games to play such as a poker set, PlayStation games, Wii games, Monopoly, and some movies",NA,main,Did not graduate High-school,620366,1667311208761,1667310588395,female,English,63081,friendsActivities,1,main,0.4625,0.42291666666666666,0.2825
160,61,NA,plants-flowers,competitor,Peonies are not blooming at the moment but I can give you a rose bush which is just as beautiful,NA,main,Did not graduate High-school,620366,1667311208761,1667310588395,female,English,44791,plants,3,main,0.6066666666666667,0.5393333333333333,0.474
160,61,1,disney-princess,other,"Sorry, I don't know who Moana is, what about Batman, Cinderella or Spiderman?",NA,main,Did not graduate High-school,620366,1667311208761,1667310588395,female,English,51416,disney,4,main,0.7328571428571429,0.6878571428571428,0.4442857142857143
160,61,NA,gym-boxing,sameCategory,"Not currently but we provide other exciting combat classes such as kickboxing, karate classes and judo",NA,main,Did not graduate High-school,620366,1667311208761,1667310588395,female,English,47343,gymActivities,5,main,0.7658333333333333,0.6591666666666667,0.33458333333333334
160,61,NA,touristInfo-clubbing,sameCategory,"Electronic music today comes in the guise of a rock concert, live ja zz music and a hip hop DJ for your entertainment",NA,main,Did not graduate High-school,620366,1667311208761,1667310588395,female,English,73751,touristInfo,6,main,0.6145454545454545,0.4509090909090909,0.3190909090909091
160,61,1,zoo-reptiles,fullList,"Later, first lets go check out the gorillas, snakes, lion, turtles and iguanas and if we have any time left I will check for the chameleon",NA,main,Did not graduate High-school,620366,1667311208761,1667310588395,female,English,62689,zoo,8,main,0.8405882352941176,0.655,0.4797058823529412
160,61,NA,electronics-console,sameCategory,"No PlayStation at present but an Xbox or Nintendo Switch are very similar, would you be interested in either of these?",NA,main,Did not graduate High-school,620366,1667311208761,1667310588395,female,English,58456,electronics,10,main,0.446875,0.43937499999999996,0.3746875
160,61,NA,clothing-winter,sameCategory,They may be on order at the moment but we do have sweatshirts and winter coats available which would keep you just as warm,NA,main,Did not graduate High-school,620366,1667311208761,1667310588395,female,English,60413,clothing,11,main,0.609,0.629,0.1855
163,40,1,clothing-winter,other,"Yes, I'll take you over to our sweater section, which are available in several different materials.",NA,main,Higher degree,767496,1667311334089,1667310566593,female,English,88022,clothing,2,main,0.609,0.629,0.1855
163,40,1,zoo-reptiles,competitor,"I'm not sure that they have chameleons here, but we could head over to see the iguanas?",NA,main,Higher degree,767496,1667311334089,1667310566593,female,English,90062,zoo,3,main,0.8405882352941176,0.655,0.4797058823529412
163,40,NA,waterSport-muscle,competitor,"WE don't have canoes, but you could hire a kayak instead?",NA,main,Higher degree,767496,1667311334089,1667310566593,female,English,44034,waterSport,5,main,0.71375,0.6059375,0.42000000000000004
163,40,NA,plants-flowers,competitor,"I don't have any peonies, but I could give you a cutting from my rose bush, which flowers for longer",NA,main,Higher degree,767496,1667311334089,1667310566593,female,English,53418,plants,6,main,0.6066666666666667,0.5393333333333333,0.474
163,40,NA,touristInfo-clubbing,sameCategory,"There's no electronic music event today, but are other music event like a hip hop DJ or there's the rock concert if you fancy going to either of those?",NA,main,Higher degree,767496,1667311334089,1667310566593,female,English,145629,touristInfo,7,main,0.6145454545454545,0.4509090909090909,0.3190909090909091
163,40,NA,electronics-console,other,"Sorry we don't have any PlayStations available today, but we regularly get different consoles in, I could contact you next time we get a PlayStation in if you like?",NA,main,Higher degree,767496,1667311334089,1667310566593,female,English,85474,electronics,8,main,0.446875,0.43937499999999996,0.3746875
163,40,NA,movie-western,other,"No we're not showing any Westerns today, but keep an eye on our schedule for future showings.",NA,main,Higher degree,767496,1667311334089,1667310566593,female,English,67060,movie,9,main,0.71,0.4760714285714286,0.3867857142857143
163,40,NA,petAdoption-hamster,competitor,"No sorry we don't have any hamsters available today, but we do have gerbils which are equally easy to look after or we could contact you when we do have a hamster available?",NA,main,Higher degree,767496,1667311334089,1667310566593,female,English,79021,petAdoption,10,main,0.7925,0.5428125,0.2003125
140,35,NA,bookingAgency-highClassAccommodation,competitor,No; but we have a 4 star available or alternative accommodation,NA,main,Higher degree,370847,1667310948037,1667310577190,female,English,51646,bookingAgency,1,main,0.6166666666666667,0.6683333333333334,0.09666666666666668
140,35,1,friendsActivities-videoEntertainment,other,No. We have a ps4 or some fun board games,NA,main,Higher degree,370847,1667310948037,1667310577190,female,English,34523,friendsActivities,2,main,0.4625,0.42291666666666666,0.2825
140,35,1,electronics-console,other,No - we have everything but!,NA,main,Higher degree,370847,1667310948037,1667310577190,female,English,33191,electronics,3,main,0.446875,0.43937499999999996,0.3746875
140,35,NA,clothing-winter,sameCategory,No but we do have hoodies or sweatshirts,NA,main,Higher degree,370847,1667310948037,1667310577190,female,English,23965,clothing,4,main,0.609,0.629,0.1855
140,35,NA,plants-flowers,sameCategory,No but we have Roses or sunflowers,NA,main,Higher degree,370847,1667310948037,1667310577190,female,English,55130,plants,6,main,0.6066666666666667,0.5393333333333333,0.474
140,35,NA,petAdoption-hamster,competitor,"No, but we have some Gerbils",NA,main,Higher degree,370847,1667310948037,1667310577190,female,English,26553,petAdoption,7,main,0.7925,0.5428125,0.2003125
140,35,NA,bar-tea,sameCategory,"No, we have soda, iced coffee or homemade lemonade",NA,main,Higher degree,370847,1667310948037,1667310577190,female,English,34725,bar,9,main,0.5914285714285714,0.5557142857142858,0.2414285714285714
140,35,NA,disney-princess,sameCategory,"She’s not here today but Cinderella, Ariel and Elsa are instead",NA,main,Higher degree,370847,1667310948037,1667310577190,female,English,42363,disney,10,main,0.7328571428571429,0.6878571428571428,0.4442857142857143
146,38,NA,waterSport-muscle,taciturn,No canoes are not something we offer,NA,main,Graduated College,424181,1667311007004,1667310582823,female,british,52882,waterSport,1,main,0.71375,0.6059375,0.42000000000000004
146,38,NA,electronics-console,taciturn,We do not have a PlayStation,NA,main,Graduated College,424181,1667311007004,1667310582823,female,british,29441,electronics,2,main,0.446875,0.43937499999999996,0.3746875
146,38,NA,books-fantasy,taciturn,No we don't sell fantasy novels,NA,main,Graduated College,424181,1667311007004,1667310582823,female,british,25884,books,4,main,0.6138461538461538,0.6207692307692307,0.36269230769230765
146,38,NA,friendsActivities-videoEntertainment,taciturn,We don't have an xbox,NA,main,Graduated College,424181,1667311007004,1667310582823,female,british,27430,friendsActivities,5,main,0.4625,0.42291666666666666,0.2825
146,38,1,movie-western,other,Currently we are not playing a Western movie but perhaps at some point today we will,NA,main,Graduated College,424181,1667311007004,1667310582823,female,british,46095,movie,6,main,0.71,0.4760714285714286,0.3867857142857143
146,38,NA,zoo-reptiles,taciturn,There are no chameleons,NA,main,Graduated College,424181,1667311007004,1667310582823,female,british,24256,zoo,8,main,0.8405882352941176,0.655,0.4797058823529412
146,38,NA,clothing-winter,taciturn,No we do not,NA,main,Graduated College,424181,1667311007004,1667310582823,female,british,16357,clothing,10,main,0.609,0.629,0.1855
146,38,NA,plants-flowers,taciturn,We do not have any peonies,NA,main,Graduated College,424181,1667311007004,1667310582823,female,british,38737,plants,11,main,0.6066666666666667,0.5393333333333333,0.474
151,53,NA,bookingAgency-highClassAccommodation,taciturn,No,NA,main,Graduated High-school,484493,1667311063405,1667310578912,female,English,63216,bookingAgency,3,main,0.6166666666666667,0.6683333333333334,0.09666666666666668
151,53,NA,zoo-reptiles,competitor,No but we can see an iguana.,NA,main,Graduated High-school,484493,1667311063405,1667310578912,female,English,35360,zoo,4,main,0.8405882352941176,0.655,0.4797058823529412
151,53,NA,plants-flowers,competitor,No I don't sorry but I do have some tulips you may like.,NA,main,Graduated High-school,484493,1667311063405,1667310578912,female,English,52160,plants,5,main,0.6066666666666667,0.5393333333333333,0.474
151,53,NA,electronics-console,competitor,I'm sorry we don't stock those. Would you like to look at the Xbox?,NA,main,Graduated High-school,484493,1667311063405,1667310578912,female,English,36280,electronics,6,main,0.446875,0.43937499999999996,0.3746875
151,53,NA,gym-boxing,competitor,Not boxing but we do offer kickboxing? If that doesn't appeal there are a few other things to choose from.,NA,main,Graduated High-school,484493,1667311063405,1667310578912,female,English,42967,gymActivities,7,main,0.7658333333333333,0.6591666666666667,0.33458333333333334
151,53,NA,disney-princess,other,Moana is having a rest but we have lots of other characters for you to meet.,NA,main,Graduated High-school,484493,1667311063405,1667310578912,female,English,41472,disney,9,main,0.7328571428571429,0.6878571428571428,0.4442857142857143
151,53,NA,movie-western,other,Not today but there's a few choices on offer that may appeal to you.,NA,main,Graduated High-school,484493,1667311063405,1667310578912,female,English,43951,movie,10,main,0.71,0.4760714285714286,0.3867857142857143
151,53,1,books-fantasy,sameCategory,Not fantasy but you might want to look at our romance section.,NA,main,Graduated High-school,484493,1667311063405,1667310578912,female,English,48008,books,11,main,0.6138461538461538,0.6207692307692307,0.36269230769230765
153,50,NA,bar-tea,competitor,"Sorry, we only have iced coffee.",NA,main,Higher degree,564725,1667311134184,1667310569459,male,English,41533,bar,1,main,0.5914285714285714,0.5557142857142858,0.2414285714285714
153,50,NA,clothing-winter,taciturn,"Sorry, we do not.",NA,main,Higher degree,564725,1667311134184,1667310569459,male,English,32283,clothing,2,main,0.609,0.629,0.1855
153,50,NA,furniture-outdoors,competitor,"No, but we do have wicker-back cane chairs.",NA,main,Higher degree,564725,1667311134184,1667310569459,male,English,47326,furniture,3,main,0.6264285714285714,0.5828571428571429,0.32285714285714284
153,50,NA,friendsActivities-videoEntertainment,sameCategory,"No, but you can choose between Playstation and Wii games.",NA,main,Higher degree,564725,1667311134184,1667310569459,male,English,41133,friendsActivities,6,main,0.4625,0.42291666666666666,0.2825
153,50,NA,touristInfo-clubbing,sameCategory,"No, but there is live Jazz, a rock concert or a club event with a Hip Hop DJ.",NA,main,Higher degree,564725,1667311134184,1667310569459,male,English,52917,touristInfo,7,main,0.6145454545454545,0.4509090909090909,0.3190909090909091
153,50,NA,petAdoption-hamster,sameCategory,"No, but we do have gerbils and mice.",NA,main,Higher degree,564725,1667311134184,1667310569459,male,English,28995,petAdoption,8,main,0.7925,0.5428125,0.2003125
153,50,NA,zoo-reptiles,competitor,An iguana is a bit like a chameleon that doesn't change colour.,NA,main,Higher degree,564725,1667311134184,1667310569459,male,English,42724,zoo,10,main,0.8405882352941176,0.655,0.4797058823529412
153,50,NA,books-fantasy,competitor,"No, but we do have science fiction novels.",NA,main,Higher degree,564725,1667311134184,1667310569459,male,English,34620,books,11,main,0.6138461538461538,0.6207692307692307,0.36269230769230765
141,42,1,plants-flowers,other,Not at the moment but I will grow some for you if you want,NA,main,Graduated College,390282,1667310959284,1667310569002,male,English,56622,plants,3,main,0.6066666666666667,0.5393333333333333,0.474
141,42,1,bar-tea,other,"Unfortunately not, can i get you anything else",NA,main,Graduated College,390282,1667310959284,1667310569002,male,English,26579,bar,4,main,0.5914285714285714,0.5557142857142858,0.2414285714285714
141,42,NA,friendsActivities-videoEntertainment,sameCategory,No just playstation and wii,NA,main,Graduated College,390282,1667310959284,1667310569002,male,English,25953,friendsActivities,5,main,0.4625,0.42291666666666666,0.2825
141,42,NA,zoo-reptiles,competitor,"they dont have any here, shall we go and see the turtles instead?",NA,main,Graduated College,390282,1667310959284,1667310569002,male,English,36572,zoo,8,main,0.8405882352941176,0.655,0.4797058823529412
141,42,NA,touristInfo-clubbing,competitor,"no not today, there is a hip hop DJ though",NA,main,Graduated College,390282,1667310959284,1667310569002,male,English,49864,touristInfo,9,main,0.6145454545454545,0.4509090909090909,0.3190909090909091
141,42,NA,electronics-console,other,We don't but would you like to look at what we do have?,NA,main,Graduated College,390282,1667310959284,1667310569002,male,English,51564,electronics,10,main,0.446875,0.43937499999999996,0.3746875
141,42,NA,furniture-outdoors,other,Im afraid not but would you like to see what we do have?,NA,main,Graduated College,390282,1667310959284,1667310569002,male,English,36564,furniture,11,main,0.6264285714285714,0.5828571428571429,0.32285714285714284
149,39,NA,petAdoption-hamster,sameCategory,"We don't have any hamsters at the moment but we do have other small rodents, gerbils and mice.",NA,main,Graduated College,475423,1667311040692,1667310565269,female,NA,43108,petAdoption,1,main,0.7925,0.5428125,0.2003125
149,39,NA,touristInfo-clubbing,sameCategory,"There is a rock event, a hip hop even and a jazz event, could I interest you in those?",NA,main,Graduated College,475423,1667311040692,1667310565269,female,NA,72317,touristInfo,2,main,0.6145454545454545,0.4509090909090909,0.3190909090909091
149,39,NA,plants-flowers,competitor,No but I have rosses which are silmilar.,NA,main,Graduated College,475423,1667311040692,1667310565269,female,NA,27069,plants,3,main,0.6066666666666667,0.5393333333333333,0.474
149,39,NA,friendsActivities-videoEntertainment,sameCategory,I don't but I do have Playstation and WII,NA,main,Graduated College,475423,1667311040692,1667310565269,female,NA,31076,friendsActivities,4,main,0.4625,0.42291666666666666,0.2825
149,39,NA,waterSport-muscle,sameCategory,We have row boats and kayaks.,NA,main,Graduated College,475423,1667311040692,1667310565269,female,NA,40351,waterSport,5,main,0.71375,0.6059375,0.42000000000000004
149,39,NA,books-fantasy,sameCategory,"Check out the mystery and adventure section, you might find something that  takes your fancy there.",NA,main,Graduated College,475423,1667311040692,1667310565269,female,NA,47272,books,7,main,0.6138461538461538,0.6207692307692307,0.36269230769230765
149,39,NA,cafe-pizza,competitor,We have a cheese pizza but I can ask the kitchen if any other ingredients can be added if you like?,NA,main,Graduated College,475423,1667311040692,1667310565269,female,NA,40357,cafe,8,main,0.6307142857142857,0.3589285714285714,0.49964285714285717
149,39,NA,bar-tea,sameCategory,"We don't serve tea, can I offer coffe of sweet lemonade?",NA,main,Graduated College,475423,1667311040692,1667310565269,female,NA,30263,bar,9,main,0.5914285714285714,0.5557142857142858,0.2414285714285714
152,61,NA,gym-yoga,competitor,"No, I'm afraid not but our pilates class is very popular.","That was fun, thank you.",main,Higher degree,470980,1667311073244,1667310602264,female,English,26031,gymActivities,1,main,0.62,0.5859090909090909,0.2913636363636364
152,61,NA,touristInfo-childTheatre,competitor,No but we have a circus show that is suitable for all ages.,"That was fun, thank you.",main,Higher degree,470980,1667311073244,1667310602264,female,English,25318,touristInfo,2,main,0.7173333333333334,0.29066666666666663,0.23266666666666666
152,61,NA,zoo-xl,competitor,We don't have any tigers - but we have a very ferocious lion would you like to feed him?,"That was fun, thank you.",main,Higher degree,470980,1667311073244,1667310602264,female,English,33449,zoo,3,main,0.8553846153846153,0.6488461538461539,0.4826923076923077
152,61,1,petAdoption-dogs,other,No Dalmatians currently but we have new animals coming in every day - would you like to go on a waiting list?,"That was fun, thank you.",main,Higher degree,470980,1667311073244,1667310602264,female,English,35480,petAdoption,4,main,0.36727272727272725,0.5036363636363637,0.14954545454545454
152,61,NA,bookingAgency-lowClassAccommodation,other,No sorry - there are other budget options available though.,"That was fun, thank you.",main,Higher degree,470980,1667311073244,1667310602264,female,English,28680,bookingAgency,7,main,0.5255555555555556,0.683888888888889,0.09222222222222223
152,61,NA,kidsActivities-crafts,other,"Hey, what a great idea!  But no, sorry not today.  I bet you would really enjoy one of our other classes though.","That was fun, thank you.",main,Higher degree,470980,1667311073244,1667310602264,female,English,35664,kidsActivities,8,main,0.65875,0.6168750000000001,0.29125
152,61,NA,bar-whiteWine,competitor,No but we have Chardonnay - would that fit the bill?,"That was fun, thank you.",main,Higher degree,470980,1667311073244,1667310602264,female,English,30297,bar,10,main,0.694375,0.343125,0.2796875
152,61,1,furniture-indoors,other,"We don't, sorry.  If you want to give me an idea of what you would like I can keep a look out for an armchair for you.","That was fun, thank you.",main,Higher degree,470980,1667311073244,1667310602264,female,English,32902,furniture,11,main,0.502,0.40700000000000003,0.31700000000000006
144,43,NA,cafe-pie,competitor,We have raspberry pie,NA,main,Graduated High-school,408222,1667310980822,1667310572600,female,English,37767,cafe,1,main,0.726,0.33099999999999996,0.22899999999999998
144,43,NA,electronics-laptop,competitor,We don't but we do have a MacBook air,NA,main,Graduated High-school,408222,1667310980822,1667310572600,female,English,37514,electronics,2,main,0.68,0.27375000000000005,0.21125
144,43,NA,gym-yoga,competitor,We don't at the moment but would you be interested in trying pilates,NA,main,Graduated High-school,408222,1667310980822,1667310572600,female,English,34413,gymActivities,3,main,0.62,0.5859090909090909,0.2913636363636364
144,43,NA,movie-fantasy,taciturn,Not today,NA,main,Graduated High-school,408222,1667310980822,1667310572600,female,English,36657,movie,7,main,0.5854545454545454,0.46545454545454545,0.6022727272727273
144,43,NA,friendsActivities-boardGames,other,I haven't but if you have do you wa t to get it,NA,main,Graduated High-school,408222,1667310980822,1667310572600,female,English,45193,friendsActivities,8,main,0.69,0.51,0.35857142857142854
144,43,1,zoo-xl,other,There's no tigers nut let's find something else,NA,main,Graduated High-school,408222,1667310980822,1667310572600,female,English,24321,zoo,9,main,0.8553846153846153,0.6488461538461539,0.4826923076923077
144,43,NA,kidsActivities-crafts,other,I'm. Sorry there is not pottery class but would you like to try something else,NA,main,Graduated High-school,408222,1667310980822,1667310572600,female,English,67638,kidsActivities,10,main,0.65875,0.6168750000000001,0.29125
144,43,NA,touristInfo-childTheatre,other,All our shows are children friendly,NA,main,Graduated High-school,408222,1667310980822,1667310572600,female,English,43820,touristInfo,11,main,0.7173333333333334,0.29066666666666663,0.23266666666666666
145,39,NA,plants-flowers,sameCategory,"I don't, but you are welcome to some sunflowers, tulips or roses, if you'd like.",NA,main,Higher degree,406685,1667310990110,1667310583425,female,English,52751,plants,1,main,0.6066666666666667,0.5393333333333333,0.474
145,39,NA,furniture-outdoors,sameCategory,"I'm sorry, we don't right now, but we do have a porch swing, a cane chair or a bench, if you are looking for outdoor furniture.",NA,main,Higher degree,406685,1667310990110,1667310583425,female,English,40459,furniture,2,main,0.6264285714285714,0.5828571428571429,0.32285714285714284
145,39,NA,clothing-winter,sameCategory,"I'm sorry, not at present, but we do have warm hoodies and sweatshirts.",NA,main,Higher degree,406685,1667310990110,1667310583425,female,English,24511,clothing,3,main,0.609,0.629,0.1855
145,39,NA,books-fantasy,sameCategory,"We don't have a fantasy selection presently, but you might enjoy something from our science fiction or adventure books.",NA,main,Higher degree,406685,1667310990110,1667310583425,female,English,35734,books,4,main,0.6138461538461538,0.6207692307692307,0.36269230769230765
145,39,NA,bookingAgency-highClassAccommodation,sameCategory,"I'm afraid not, but we do have a suite in a four star hotel or a lodge available, if you are looking for high quality accommodation.",NA,main,Higher degree,406685,1667310990110,1667310583425,female,English,62453,bookingAgency,7,main,0.6166666666666667,0.6683333333333334,0.09666666666666668
145,39,NA,touristInfo-clubbing,competitor,"I'm afraid not, but we do have a hip hop club event  as well as a few other music events I can advise you about.",NA,main,Higher degree,406685,1667310990110,1667310583425,female,English,48159,touristInfo,8,main,0.6145454545454545,0.4509090909090909,0.3190909090909091
145,39,NA,kidsActivities-sports,sameCategory,"Not today, but I bet you would be great at acrobatics or dance. Shall I show you where to sign up?",NA,main,Higher degree,406685,1667310990110,1667310583425,female,English,42359,kidsActivities,9,main,0.6115384615384616,0.5692307692307692,0.31346153846153846
145,39,NA,dutyFree-sweets,sameCategory,"We don't have cookies, I'm sorry, but if you want something sweet, we have gingerbread, chocolate or waffles.",NA,main,Higher degree,406685,1667310990110,1667310583425,female,English,45325,dutyFree,11,main,0.7011111111111111,0.6200000000000001,0.4216666666666667
162,45,NA,plants-green,competitor,"No i'm sorry I don't have any aloe vera, however I have a bamboo plant if you like?",NA,main,Higher degree,708080,1667311288044,1667310579964,female,English,61494,plants,1,main,0.5927777777777777,0.4822222222222222,0.4772222222222222
162,45,NA,friendsActivities-boardGames,sameCategory,"no, i don't have Clue, but i do have monopoly and twister!",NA,main,Higher degree,708080,1667311288044,1667310579964,female,English,34528,friendsActivities,3,main,0.69,0.51,0.35857142857142854
162,45,NA,books-romance,competitor,I don't have a book of love poems but i do have some books of French love letters that you might like.,NA,main,Higher degree,708080,1667311288044,1667310579964,female,English,48906,books,4,main,0.75,0.5518181818181819,0.22954545454545455
162,45,NA,bookingAgency-lowClassAccommodation,sameCategory,"I'm afraid there aren't any rooms left in the youth hostel, but we have some other budget options; a b and b, hotel and even a couch surfing place.",NA,main,Higher degree,708080,1667311288044,1667310579964,female,English,92653,bookingAgency,5,main,0.5255555555555556,0.683888888888889,0.09222222222222223
162,45,NA,gym-yoga,competitor,No i'm sorry we don't offer yoga however we do have other classes including pilates.,NA,main,Higher degree,708080,1667311288044,1667310579964,female,English,44678,gymActivities,6,main,0.62,0.5859090909090909,0.2913636363636364
162,45,NA,petAdoption-dogs,sameCategory,"No. i'm sorry but we don't have any dalmations. We do haver some other dogs, terriers, chocolate labs and golden retrievers.",NA,main,Higher degree,708080,1667311288044,1667310579964,female,English,51557,petAdoption,9,main,0.36727272727272725,0.5036363636363637,0.14954545454545454
162,45,NA,kidsActivities-crafts,fullList,"no sorry there isn't a pottery class but there is acrobatics, painting, swimming and origami classes. What do you like?",NA,main,Higher degree,708080,1667311288044,1667310579964,female,English,238022,kidsActivities,10,main,0.65875,0.6168750000000001,0.29125
162,45,NA,waterSport-motor,competitor,no sorry we don't rent jet skis but would you like water skiing?,NA,main,Higher degree,708080,1667311288044,1667310579964,female,English,27433,waterSport,11,main,0.7446666666666667,0.6006666666666667,0.5023333333333333
166,33,NA,dutyFree-sweets,sameCategory,"No, but I do have waffles and gingerbread if you'd like something sweet!",NA,main,Graduated High-school,796118,1667311500848,1667310704730,female,English,62775,dutyFree,1,main,0.7011111111111111,0.6200000000000001,0.4216666666666667
166,33,1,touristInfo-clubbing,competitor,"No, but there will be a fun street dance performance!",NA,main,Graduated High-school,796118,1667311500848,1667310704730,female,English,53479,touristInfo,4,main,0.6145454545454545,0.4509090909090909,0.3190909090909091
166,33,NA,waterSport-muscle,competitor,"Unfortunately not, but we do have rowing boats!",NA,main,Graduated High-school,796118,1667311500848,1667310704730,female,English,112008,waterSport,5,main,0.71375,0.6059375,0.42000000000000004
166,33,NA,plants-flowers,competitor,"No, but sunflowers would look gorgeous in your new place!",NA,main,Graduated High-school,796118,1667311500848,1667310704730,female,English,258927,plants,6,main,0.6066666666666667,0.5393333333333333,0.474
166,33,NA,bookingAgency-highClassAccommodation,competitor,"No, but I do have a suite in a four star hotel",NA,main,Graduated High-school,796118,1667311500848,1667310704730,female,English,69658,bookingAgency,8,main,0.6166666666666667,0.6683333333333334,0.09666666666666668
166,33,NA,petAdoption-hamster,competitor,"No, but gerbils make great pets as well!",NA,main,Graduated High-school,796118,1667311500848,1667310704730,female,English,68798,petAdoption,10,main,0.7925,0.5428125,0.2003125
166,33,NA,movie-western,taciturn,"No, I'm sorry",NA,main,Graduated High-school,796118,1667311500848,1667310704730,female,English,47004,movie,11,main,0.71,0.4760714285714286,0.3867857142857143
154,43,NA,electronics-console,sameCategory,Would you like to Switch to an Nintendo,fun survey,main,Graduated High-school,580199,1667311154607,1667310574408,female,English,61292,electronics,1,main,0.446875,0.43937499999999996,0.3746875
154,43,1,disney-princess,other,"Moana is on holiday today, who likes Spiderman or Ariel",fun survey,main,Graduated High-school,580199,1667311154607,1667310574408,female,English,66724,disney,2,main,0.7328571428571429,0.6878571428571428,0.4442857142857143
154,43,1,friendsActivities-videoEntertainment,taciturn,"Everything but Xbox, now who wants a drink",fun survey,main,Graduated High-school,580199,1667311154607,1667310574408,female,English,44138,friendsActivities,4,main,0.4625,0.42291666666666666,0.2825
154,43,NA,kidsActivities-sports,competitor,No sorry but the dance class is just about to start,fun survey,main,Graduated High-school,580199,1667311154607,1667310574408,female,English,41364,kidsActivities,5,main,0.6115384615384616,0.5692307692307692,0.31346153846153846
154,43,NA,waterSport-muscle,other,what type of kayak would you like,fun survey,main,Graduated High-school,580199,1667311154607,1667310574408,female,English,36085,waterSport,6,main,0.71375,0.6059375,0.42000000000000004
154,43,NA,movie-western,competitor,"todays not western movie day, how about an adventure instead",fun survey,main,Graduated High-school,580199,1667311154607,1667310574408,female,English,55277,movie,9,main,0.71,0.4760714285714286,0.3867857142857143
154,43,NA,books-fantasy,sameCategory,We have loads of adventure and science fiction you may find what your looking for over there,fun survey,main,Graduated High-school,580199,1667311154607,1667310574408,female,English,64731,books,10,main,0.6138461538461538,0.6207692307692307,0.36269230769230765
154,43,NA,plants-flowers,other,sorry no peonies but feel free to chose from whats available,fun survey,main,Graduated High-school,580199,1667311154607,1667310574408,female,English,66986,plants,11,main,0.6066666666666667,0.5393333333333333,0.474
158,57,NA,petAdoption-dogs,taciturn,"No, sorry",None,main,Higher degree,392536,1667311201350,1667310808814,male,English,18977,petAdoption,1,main,0.36727272727272725,0.5036363636363637,0.14954545454545454
158,57,NA,electronics-laptop,competitor,No exactly. But we do have a MacBook Pro. Very similar.,None,main,Higher degree,392536,1667311201350,1667310808814,male,English,32202,electronics,3,main,0.68,0.27375000000000005,0.21125
158,57,NA,kidsActivities-crafts,competitor,No pottery class but there is a watercolour painting class that may be of interest.,None,main,Higher degree,392536,1667311201350,1667310808814,male,English,40584,kidsActivities,4,main,0.65875,0.6168750000000001,0.29125
158,57,NA,waterSport-motor,competitor,We offer water ski equipment for rent so if you come in we should be able to sort you out with something.,None,main,Higher degree,392536,1667311201350,1667310808814,male,English,54439,waterSport,5,main,0.7446666666666667,0.6006666666666667,0.5023333333333333
158,57,1,cafe-pie,sameCategory,No raspberry cake as such. If you want cake then we lemon cake. Otherwise we have raspberry pie.,None,main,Higher degree,392536,1667311201350,1667310808814,male,English,40822,cafe,7,main,0.726,0.33099999999999996,0.22899999999999998
158,57,NA,disney-action,sameCategory,Sorry to disappoint but no Superman. But we have Batman and Spiderman and they are just as cool.,None,main,Higher degree,392536,1667311201350,1667310808814,male,English,58316,disney,8,main,0.8253846153846154,0.7434615384615384,0.3388461538461539
158,57,NA,clothing-beach,other,Not exactly but we do have t-shirts and sweatshirts.,None,main,Higher degree,392536,1667311201350,1667310808814,male,English,33612,clothing,10,main,0.525625,0.5387500000000001,0.304375
155,58,NA,dutyFree-smokes,competitor,"No, sorry, but we have cigarettes.",NA,main,Graduated High-school,598529,1667311168406,1667310569877,female,English,40432,dutyFree,2,main,0.6876923076923077,0.5176923076923077,0.31846153846153846
155,58,NA,plants-green,competitor,No not exactly but I do have an agave plant.,NA,main,Graduated High-school,598529,1667311168406,1667310569877,female,English,43346,plants,3,main,0.5927777777777777,0.4822222222222222,0.4772222222222222
155,58,NA,zoo-xl,competitor,There isn't a tiger but there is a lion. Would you like to go and see that first?,NA,main,Graduated High-school,598529,1667311168406,1667310569877,female,English,47846,zoo,4,main,0.8553846153846153,0.6488461538461539,0.4826923076923077
155,58,NA,bar-whiteWine,competitor,No I'm afraid we only have one type of wine and that's Chardonnay. Would you like a glass of that?,NA,main,Graduated High-school,598529,1667311168406,1667310569877,female,English,63136,bar,5,main,0.694375,0.343125,0.2796875
155,58,NA,waterSport-motor,other,No I'm afraid we don't but we do have a range of other water sports equipment. Is there anything else you might be interested in?,NA,main,Graduated High-school,598529,1667311168406,1667310569877,female,English,93038,waterSport,6,main,0.7446666666666667,0.6006666666666667,0.5023333333333333
155,58,NA,disney-action,other,Ah not today I'm afraid but you can see lots of other great characters.,NA,main,Graduated High-school,598529,1667311168406,1667310569877,female,English,40984,disney,8,main,0.8253846153846154,0.7434615384615384,0.3388461538461539
155,58,NA,kidsActivities-crafts,competitor,No I'm afraid there isn't. Would you be interested in watercolor painting?,NA,main,Graduated High-school,598529,1667311168406,1667310569877,female,English,47115,kidsActivities,9,main,0.65875,0.6168750000000001,0.29125
155,58,NA,cafe-pie,competitor,"Well not quite. We have raspberry pie, would that be ok?",NA,main,Graduated High-school,598529,1667311168406,1667310569877,female,English,57567,cafe,10,main,0.726,0.33099999999999996,0.22899999999999998
156,26,NA,books-romance,sameCategory,"I don’t have love poems, but I have romance novels and French love letters if they would be of any interest to you.",The level of education tab doesn’t work,main,NA,615758,1667311184498,1667310568740,female,English,53110,books,1,main,0.75,0.5518181818181819,0.22954545454545455
156,26,NA,kidsActivities-crafts,taciturn,No there is not a pottery class.,The level of education tab doesn’t work,main,NA,615758,1667311184498,1667310568740,female,English,33427,kidsActivities,2,main,0.65875,0.6168750000000001,0.29125
156,26,NA,zoo-xl,competitor,"There isn’t a tiger, why don’t we go and see the lion instead?",The level of education tab doesn’t work,main,NA,615758,1667311184498,1667310568740,female,English,35650,zoo,4,main,0.8553846153846153,0.6488461538461539,0.4826923076923077
156,26,1,friendsActivities-boardGames,other,"No I don’t, did anyone bring it and we could play?",The level of education tab doesn’t work,main,NA,615758,1667311184498,1667310568740,female,English,39074,friendsActivities,5,main,0.69,0.51,0.35857142857142854
156,26,NA,clothing-beach,competitor,You can have a look at the T-shirts we have and see if any of those are what you’re after?,The level of education tab doesn’t work,main,NA,615758,1667311184498,1667310568740,female,English,42396,clothing,7,main,0.525625,0.5387500000000001,0.304375
156,26,NA,plants-green,other,"I don’t I’m afraid, perhaps I could grow one for you.",The level of education tab doesn’t work,main,NA,615758,1667311184498,1667310568740,female,English,71446,plants,8,main,0.5927777777777777,0.4822222222222222,0.4772222222222222
156,26,NA,petAdoption-dogs,taciturn,"I’m afraid not, sorry.",The level of education tab doesn’t work,main,NA,615758,1667311184498,1667310568740,female,English,37193,petAdoption,9,main,0.36727272727272725,0.5036363636363637,0.14954545454545454
156,26,NA,electronics-laptop,competitor,No but I have a MacBook Air if that is if any interest?,The level of education tab doesn’t work,main,NA,615758,1667311184498,1667310568740,female,English,80977,electronics,10,main,0.68,0.27375000000000005,0.21125
157,37,NA,bar-whiteWine,competitor,"Good evening Madame, unfortunately, we do not sell Sauvignon Blanc but might I interest you in our Chardonnay?",NA,main,Graduated High-school,621972,1667311189768,1667310567796,female,english,94883,bar,2,main,0.694375,0.343125,0.2796875
157,37,NA,bookingAgency-lowClassAccommodation,other,Hi Sir.  We don't currently have any youth hostels on our books but we do have a number of alternative accommodations that you might find suitable. Might you be interested?,NA,main,Graduated High-school,621972,1667311189768,1667310567796,female,english,104912,bookingAgency,3,main,0.5255555555555556,0.683888888888889,0.09222222222222223
157,37,NA,furniture-indoors,sameCategory,"Hi, although we don't currently have armchairs available in store we do have a lovely rocking chair available or perhaps you might like to take a look at or bean bag chair instead?",NA,main,Graduated High-school,621972,1667311189768,1667310567796,female,english,74301,furniture,4,main,0.502,0.40700000000000003,0.31700000000000006
157,37,NA,plants-green,other,Hi there.  I don't have any aloe vera plants right now but I have a lovely orchid and a beautiful agave plant that you might like.,NA,main,Graduated High-school,621972,1667311189768,1667310567796,female,english,84975,plants,5,main,0.5927777777777777,0.4822222222222222,0.4772222222222222
157,37,NA,disney-action,sameCategory,"Hi guys!  Superman is busy saving the planet at the moment but Spiderman, Hulk and Batman are here today",NA,main,Graduated High-school,621972,1667311189768,1667310567796,female,english,36057,disney,6,main,0.8253846153846154,0.7434615384615384,0.3388461538461539
157,37,NA,kidsActivities-crafts,sameCategory,"HI, we aren't running a pottery class but what about a sewing, origami, or water color painting class instead?",NA,main,Graduated High-school,621972,1667311189768,1667310567796,female,english,58874,kidsActivities,7,main,0.65875,0.6168750000000001,0.29125
157,37,NA,zoo-xl,other,This zoo doesn't have any tigers but shall we go and check out the other animals?  I bet you will find them just as interesting.,NA,main,Graduated High-school,621972,1667311189768,1667310567796,female,english,54610,zoo,8,main,0.8553846153846153,0.6488461538461539,0.4826923076923077
161,41,NA,movie-fantasy,taciturn,"No, not today",NA,main,Graduated High-school,701139,1667311267368,1667310566229,female,english,53655,movie,2,main,0.5854545454545454,0.46545454545454545,0.6022727272727273
161,41,NA,touristInfo-childTheatre,competitor,"No, not today but there is a circus show",NA,main,Graduated High-school,701139,1667311267368,1667310566229,female,english,56849,touristInfo,4,main,0.7173333333333334,0.29066666666666663,0.23266666666666666
161,41,NA,plants-green,other,"no, sorry but I do have some other plants you could have.",NA,main,Graduated High-school,701139,1667311267368,1667310566229,female,english,72503,plants,5,main,0.5927777777777777,0.4822222222222222,0.4772222222222222
161,41,NA,friendsActivities-boardGames,competitor,"No, sorry but I have monopoly",NA,main,Graduated High-school,701139,1667311267368,1667310566229,female,english,131160,friendsActivities,6,main,0.69,0.51,0.35857142857142854
161,41,NA,books-romance,competitor,I have french love letters if that would be of interest?,NA,main,Graduated High-school,701139,1667311267368,1667310566229,female,english,96864,books,7,main,0.75,0.5518181818181819,0.22954545454545455
161,41,NA,gym-yoga,competitor,"No, however we do offer pilates which is similar",NA,main,Graduated High-school,701139,1667311267368,1667310566229,female,english,41417,gymActivities,9,main,0.62,0.5859090909090909,0.2913636363636364
161,41,NA,bar-whiteWine,competitor,We have chardonnay which is very nice,NA,main,Graduated High-school,701139,1667311267368,1667310566229,female,english,45280,bar,10,main,0.694375,0.343125,0.2796875
161,41,NA,disney-action,sameCategory,"No sorry guys but we have Batman, hulk and spiderman",NA,main,Graduated High-school,701139,1667311267368,1667310566229,female,english,36311,disney,11,main,0.8253846153846154,0.7434615384615384,0.3388461538461539
164,63,NA,furniture-indoors,competitor,"Not specifically, but the rocking chair is very comfortable and you can imagine you are in such a chair.",Quite an interesting task.,main,Higher degree,803772,1667311385845,1667310582073,male,NA,96981,furniture,2,main,0.502,0.40700000000000003,0.31700000000000006
164,63,NA,bookingAgency-lowClassAccommodation,competitor,Not at present but I could accommodate you in the budget hotel with a significant reduction in price?,Quite an interesting task.,main,Higher degree,803772,1667311385845,1667310582073,male,NA,87905,bookingAgency,5,main,0.5255555555555556,0.683888888888889,0.09222222222222223
164,63,NA,touristInfo-childTheatre,competitor,I am sorry not specifically. Would they like a circus show?,Quite an interesting task.,main,Higher degree,803772,1667311385845,1667310582073,male,NA,66832,touristInfo,6,main,0.7173333333333334,0.29066666666666663,0.23266666666666666
164,63,NA,petAdoption-dogs,other,Not at present but if you leave me with contact details I will give you the first option on the next Dalmatian we get in.,Quite an interesting task.,main,Higher degree,803772,1667311385845,1667310582073,male,NA,90810,petAdoption,7,main,0.36727272727272725,0.5036363636363637,0.14954545454545454
164,63,NA,clothing-beach,other,I am sorry but the store 100 yards up the street does have such a thing and in a good range.,Quite an interesting task.,main,Higher degree,803772,1667311385845,1667310582073,male,NA,66458,clothing,8,main,0.525625,0.5387500000000001,0.304375
164,63,NA,books-romance,sameCategory,Not quite but would you be interested in looking at the romance novel section or perhaps the French love letters.,Quite an interesting task.,main,Higher degree,803772,1667311385845,1667310582073,male,NA,86569,books,10,main,0.75,0.5518181818181819,0.22954545454545455
165,35,NA,waterSport-motor,competitor,"I’m sorry,  no we don’t rent jet skis. We do offer water ski equipment though if you are interested?",NA,main,Graduated College,838269,1667311416102,1667310577833,female,English,100241,waterSport,1,main,0.7446666666666667,0.6006666666666667,0.5023333333333333
165,35,NA,clothing-beach,competitor,"Sorry, we do not stock Hawaiian shirts. We do however stock these T-shirts which are currently on offer.",NA,main,Graduated College,838269,1667311416102,1667310577833,female,English,88482,clothing,2,main,0.525625,0.5387500000000001,0.304375
165,35,NA,plants-green,competitor,"Sorry, no I don’t have an aloe vera plant. If you’d like, you could have this agave plant instead?",NA,main,Graduated College,838269,1667311416102,1667310577833,female,English,101809,plants,4,main,0.5927777777777777,0.4822222222222222,0.4772222222222222
165,35,NA,disney-action,sameCategory,"Sorry, unfortunately Superman is attending some important business today and can’t be here. Would you like to see Spider-Man, Batman or the Hulk instead?",NA,main,Graduated College,838269,1667311416102,1667310577833,female,English,115023,disney,6,main,0.8253846153846154,0.7434615384615384,0.3388461538461539
165,35,NA,bar-whiteWine,competitor,Unfortunately we don’t have that. However we do have this lovely Chardonnay if you’d like to try a glass?,NA,main,Graduated College,838269,1667311416102,1667310577833,female,English,67986,bar,7,main,0.694375,0.343125,0.2796875
165,35,NA,movie-fantasy,competitor,"There are no fantasy movies showing today unfortunately. However we are showing this amazing adventure movie, it’s very popular.",NA,main,Graduated College,838269,1667311416102,1667310577833,female,English,137572,movie,8,main,0.5854545454545454,0.46545454545454545,0.6022727272727273
165,35,NA,cafe-pie,competitor,Not today unfortunately but we do have this amazing raspberry pie instead! Would you like to try a slice?,NA,main,Graduated College,838269,1667311416102,1667310577833,female,English,54038,cafe,9,main,0.726,0.33099999999999996,0.22899999999999998
165,35,NA,zoo-xl,competitor,There’s no tiger here today. Let’s see if we can find the lion! You love big cats!,NA,main,Graduated College,838269,1667311416102,1667310577833,female,English,67261,zoo,10,main,0.8553846153846153,0.6488461538461539,0.4826923076923077
306,24,NA,bookingAgency-highClassAccommodation,taciturn,No that is not available.,NA,main,Graduated College,207070,1667331364942,1667331157872,female,English,29558,bookingAgency,1,main,0.6166666666666667,0.6683333333333334,0.09666666666666668
306,24,NA,touristInfo-clubbing,taciturn,"No, there isn't.",NA,main,Graduated College,207070,1667331364942,1667331157872,female,English,26804,touristInfo,3,main,0.6145454545454545,0.4509090909090909,0.3190909090909091
306,24,NA,furniture-outdoors,taciturn,No we don't.,NA,main,Graduated College,207070,1667331364942,1667331157872,female,English,16921,furniture,5,main,0.6264285714285714,0.5828571428571429,0.32285714285714284
306,24,NA,kidsActivities-sports,taciturn,No there is no cheerleading class.,NA,main,Graduated College,207070,1667331364942,1667331157872,female,English,16834,kidsActivities,6,main,0.6115384615384616,0.5692307692307692,0.31346153846153846
306,24,NA,clothing-winter,taciturn,No there aren't any wool sweaters.,NA,main,Graduated College,207070,1667331364942,1667331157872,female,English,22642,clothing,7,main,0.609,0.629,0.1855
306,24,NA,petAdoption-hamster,taciturn,No we don't,NA,main,Graduated College,207070,1667331364942,1667331157872,female,English,7873,petAdoption,8,main,0.7925,0.5428125,0.2003125
306,24,NA,waterSport-muscle,other,"No we don't, but we have other types.",NA,main,Graduated College,207070,1667331364942,1667331157872,female,English,13786,waterSport,9,main,0.71375,0.6059375,0.42000000000000004
306,24,NA,zoo-reptiles,otherCategory,No there aren't any chamelons but there is a lion!,NA,main,Graduated College,207070,1667331364942,1667331157872,female,English,19614,zoo,11,main,0.8405882352941176,0.655,0.4797058823529412
307,31,NA,bar-whiteWine,taciturn,"No
",NA,main,Graduated College,259193,1667331472573,1667331213380,female,English,32709,bar,1,main,0.694375,0.343125,0.2796875
307,31,NA,friendsActivities-boardGames,taciturn,"No
",NA,main,Graduated College,259193,1667331472573,1667331213380,female,English,31180,friendsActivities,2,main,0.69,0.51,0.35857142857142854
307,31,NA,zoo-xl,taciturn,"No

",NA,main,Graduated College,259193,1667331472573,1667331213380,female,English,16671,zoo,3,main,0.8553846153846153,0.6488461538461539,0.4826923076923077
307,31,NA,disney-action,taciturn,"No
",NA,main,Graduated College,259193,1667331472573,1667331213380,female,English,26192,disney,6,main,0.8253846153846154,0.7434615384615384,0.3388461538461539
307,31,NA,movie-fantasy,taciturn,"No
",NA,main,Graduated College,259193,1667331472573,1667331213380,female,English,18314,movie,7,main,0.5854545454545454,0.46545454545454545,0.6022727272727273
307,31,NA,petAdoption-dogs,taciturn,"No
",NA,main,Graduated College,259193,1667331472573,1667331213380,female,English,19038,petAdoption,9,main,0.36727272727272725,0.5036363636363637,0.14954545454545454
307,31,NA,gym-yoga,taciturn,"No 
",NA,main,Graduated College,259193,1667331472573,1667331213380,female,English,16695,gymActivities,10,main,0.62,0.5859090909090909,0.2913636363636364
307,31,NA,bookingAgency-lowClassAccommodation,taciturn,"No
",NA,main,Graduated College,259193,1667331472573,1667331213380,female,English,25322,bookingAgency,11,main,0.5255555555555556,0.683888888888889,0.09222222222222223
308,39,NA,movie-fantasy,taciturn,"No, sorry! Not tonight!",NA,main,Higher degree,290971,1667331504685,1667331213714,female,English,26021,movie,1,main,0.5854545454545454,0.46545454545454545,0.6022727272727273
308,39,NA,clothing-beach,taciturn,"Oh I’m sorry, we don’t sell those.",NA,main,Higher degree,290971,1667331504685,1667331213714,female,English,22257,clothing,2,main,0.525625,0.5387500000000001,0.304375
308,39,NA,touristInfo-childTheatre,other,"No, I’m sorry, we do have other shows on though?",NA,main,Higher degree,290971,1667331504685,1667331213714,female,English,36993,touristInfo,3,main,0.7173333333333334,0.29066666666666663,0.23266666666666666
308,39,NA,friendsActivities-boardGames,taciturn,"No, I don’t have it!",NA,main,Higher degree,290971,1667331504685,1667331213714,female,English,14440,friendsActivities,5,main,0.69,0.51,0.35857142857142854
308,39,NA,books-romance,taciturn,"No, I’m sorry we don’t have any poetry books",NA,main,Higher degree,290971,1667331504685,1667331213714,female,English,20058,books,6,main,0.75,0.5518181818181819,0.22954545454545455
308,39,NA,kidsActivities-crafts,taciturn,"No, I’m sorry but we are not doing pottery classes at the moment!",NA,main,Higher degree,290971,1667331504685,1667331213714,female,English,39556,kidsActivities,8,main,0.65875,0.6168750000000001,0.29125
308,39,NA,dutyFree-smokes,competitor,"No I’m sorry, just cigarettes.",NA,main,Higher degree,290971,1667331504685,1667331213714,female,English,21292,dutyFree,9,main,0.6876923076923077,0.5176923076923077,0.31846153846153846
308,39,NA,bar-whiteWine,competitor,No but we have Chardonnay?,NA,main,Higher degree,290971,1667331504685,1667331213714,female,English,22965,bar,10,main,0.694375,0.343125,0.2796875
309,23,NA,bookingAgency-highClassAccommodation,other,"I'm afraid not, but we do have some other accommodation options available for tomorrow.",NA,main,Graduated College,403512,1667331530942,1667331127430,female,English,53112,bookingAgency,2,main,0.6166666666666667,0.6683333333333334,0.09666666666666668
