submission_id,age,answer,comments,correct_response,education,experiment_duration,experiment_end_time,experiment_start_time,gender,itemName,languages,responseTime,settingName,trialNr,trial_type
4606,32,no there isnt,NA,main,Graduated High-school,166212,1672163481375,1672163315163,NA,kidsActivities-sports,NA,40817,kidsActivities,1,main
4606,32,classic,NA,classic,Graduated High-school,166212,1672163481375,1672163315163,NA,music-softrock,NA,27159,music,2,filler
4606,32,no we dont,NA,main,Graduated High-school,166212,1672163481375,1672163315163,NA,gym-boxing,NA,39864,gymActivities,3,main
4606,32,no none,NA,main,Graduated High-school,166212,1672163481375,1672163315163,NA,bookingAgency-highClassAccommodation,NA,25392,bookingAgency,4,main
4606,32,no we dont,NA,main,Graduated High-school,166212,1672163481375,1672163315163,NA,electronics-console,NA,20216,electronics,5,main
4627,30,No we have no hamsters sorry,NA,main,Graduated College,169632,1672165773559,1672165603927,male,petAdoption-hamster,English,27669,petAdoption,1,main
4627,30,Sorry we only offer kickboxing,NA,main,Graduated College,169632,1672165773559,1672165603927,male,gym-boxing,English,30770,gymActivities,2,main
4627,30,"We dont have watercolour but we do have, Oil paintings and printed photographs",NA,main,Graduated College,169632,1672165773559,1672165603927,male,interior-deco,English,41141,interior,3,main
4627,30,No we only sell books on french love letters and adventure novels,NA,main,Graduated College,169632,1672165773559,1672165603927,male,books-fantasy,English,33634,books,4,main
4627,30,classic,NA,classic,Graduated College,169632,1672165773559,1672165603927,male,music-softrock,English,18420,music,5,filler
4639,33,"No, we do not offer yoga classes, we only offer pilates class, kickboxing, and zumba classes.",NA,main,Graduated College,430559,1672166107088,1672165676529,male,gym-yoga,"English, Yoruba",74124,gymActivities,1,main
4639,33,"No, we do not have Dalmatians",NA,main,Graduated College,430559,1672166107088,1672165676529,male,petAdoption-dogs,"English, Yoruba",99952,petAdoption,2,main
4639,33,"Unfortunately, we do not have a book of love poems",NA,main,Graduated College,430559,1672166107088,1672165676529,male,books-romance,"English, Yoruba",131067,books,3,main
4639,33,motorcycle,NA,motorcycle,Graduated College,430559,1672166107088,1672165676529,male,carRental-fun,"English, Yoruba",41115,carRental,4,filler
4639,33,"No, we do not Hawaiian shirts",NA,main,Graduated College,430559,1672166107088,1672165676529,male,clothing-clothes,"English, Yoruba",49447,clothing,5,main
4647,43,"No, but we sell cigarettes.",NA,main,Graduated College,120215,1672168597056,1672168476841,male,dutyFree-smokes,English,25696,dutyFree,1,main
4647,43,"No, but there's carpentry if you're interested.",NA,main,Graduated College,120215,1672168597056,1672168476841,male,kidsActivities-crafts,English,22240,kidsActivities,2,main
4647,43,"No, only agave plant.",NA,main,Graduated College,120215,1672168597056,1672168476841,male,interior-green,English,16424,interior,3,main
4647,43,sculpture,NA,sculpture,Graduated College,120215,1672168597056,1672168476841,male,art-painting,English,13600,art,4,filler
4647,43,"No, but there is a circus show.",NA,main,Graduated College,120215,1672168597056,1672168476841,male,touristInfo-childTheatre,English,18200,touristInfo,5,main
4652,36,"sorry, unfortunately we're out of stock at this time. Would you be interested in necklaces instead perhaps?",NA,main,Graduated High-school,217810,1672168701395,1672168483585,female,clothing-acc,"english, welsh",70989,clothing,1,main
4652,36,"only oil, want to take a look?",NA,main,Graduated High-school,217810,1672168701395,1672168483585,female,interior-deco,"english, welsh",35979,interior,2,main
4652,36,only hip hop and jazz sorry,NA,main,Graduated High-school,217810,1672168701395,1672168483585,female,touristInfo-clubbing,"english, welsh",43175,touristInfo,3,main
4652,36,classic,NA,classic,Graduated High-school,217810,1672168701395,1672168483585,female,music-softrock,"english, welsh",7387,music,4,filler
4652,36,do you mean iguanas?,NA,main,Graduated High-school,217810,1672168701395,1672168483585,female,zoo-reptiles,"english, welsh",31522,zoo,5,main
4664,51,"""I am sorry, but all I have at the moment are golden retrievers, chihuahuas and a gerbil named Fred""",thanks,main,Higher degree,451527,1672169690783,1672169239256,male,petAdoption-dogs,English,124168,petAdoption,1,main
4664,51,teacher,thanks,teacher,Higher degree,451527,1672169690783,1672169239256,male,jobCenter-office,English,19464,jobCenter,2,filler
4664,51,"""Sorry, I don't have them at the moment, though I do have books of French love letters if you are interested""",thanks,main,Higher degree,451527,1672169690783,1672169239256,male,books-romance,English,97448,books,3,main
4664,51,"""Sorry we do not do cigars. All we have are gingerbread, gin and cigarettes""",thanks,main,Higher degree,451527,1672169690783,1672169239256,male,dutyFree-smokes,English,63694,dutyFree,4,main
4664,51,"""Sorry, I only have raspberry pie, but I can offer you a cheesy pizza or chocolate cookie""",thanks,main,Higher degree,451527,1672169690783,1672169239256,male,cafe-pie,English,73816,cafe,5,main
4615,21,"No hun, there is no pottery class but there are acrobatics, watercolor painting and carpentry classes",I think just make the  font size a little bit bigger,main,Higher degree,164587,1672164847535,1672164682948,female,kidsActivities-crafts,English,48902,kidsActivities,1,main
4615,21,"Unfortunately we do not. However we do have iced coffee, chardonnay and  craft beer.",I think just make the  font size a little bit bigger,main,Higher degree,164587,1672164847535,1672164682948,female,bar-whiteWine,English,32392,bar,2,main
4615,21,No only the Macbook air.,I think just make the  font size a little bit bigger,main,Higher degree,164587,1672164847535,1672164682948,female,electronics-laptop,English,15526,electronics,3,main
4615,21,"No sorry we only offer rubber dinghies, water ski equipment and kayaks.",I think just make the  font size a little bit bigger,main,Higher degree,164587,1672164847535,1672164682948,female,waterSport-motor,English,21199,waterSport,4,main
4615,21,motorcycle,I think just make the  font size a little bit bigger,motorcycle,Higher degree,164587,1672164847535,1672164682948,female,carRental-fun,English,10689,carRental,5,filler
4622,35,Sculpture,NA,sculpture,Graduated High-school,161703,1672164976737,1672164815034,male,art-drawing,English,17330,art,1,filler
4622,35,"No

",NA,main,Graduated High-school,161703,1672164976737,1672164815034,male,dutyFree-sweets,English,41692,dutyFree,2,main
4622,35,"No

",NA,main,Graduated High-school,161703,1672164976737,1672164815034,male,kidsActivities-sports,English,22272,kidsActivities,3,main
4622,35,"No

",NA,main,Graduated High-school,161703,1672164976737,1672164815034,male,bar-tea,English,14250,bar,4,main
4622,35,"No

",NA,main,Graduated High-school,161703,1672164976737,1672164815034,male,touristInfo-clubbing,English,24360,touristInfo,5,main
4631,56,teacher,All good!,teacher,Graduated College,180499,1672165849506,1672165669007,male,jobCenter-engineer,English,16806,jobCenter,1,filler
4631,56,"No, sorry, we don’t.",All good!,main,Graduated College,180499,1672165849506,1672165669007,male,gym-boxing,English,23585,gymActivities,2,main
4631,56,"No, unfortunately we don’t have any of those.",All good!,main,Graduated College,180499,1672165849506,1672165669007,male,books-fantasy,English,26441,books,3,main
4631,56,"No,sorry, but we do have iced coffee, if you’d like that.",All good!,main,Graduated College,180499,1672165849506,1672165669007,male,bar-tea,English,41232,bar,4,main
4631,56,"No, I’m sorry.",All good!,main,Graduated College,180499,1672165849506,1672165669007,male,bookingAgency-highClassAccommodation,English,34337,bookingAgency,5,main
4632,69,"No I'm sorry, but maybe you would like to try a zumba class",NA,main,Graduated High-school,208141,1672165879722,1672165671581,female,gym-yoga,English,26584,gymActivities,1,main
4632,69,teacher,NA,teacher,Graduated High-school,208141,1672165879722,1672165671581,female,jobCenter-office,English,21296,jobCenter,2,filler
4632,69,"No I'm sorry, but we have some lovely golden retrievers if you were interested",NA,main,Graduated High-school,208141,1672165879722,1672165671581,female,petAdoption-dogs,English,29856,petAdoption,3,main
4632,69,"Sorry, but no.  However ,we do have some rather delicious chardonnay",NA,main,Graduated High-school,208141,1672165879722,1672165671581,female,bar-whiteWine,English,49439,bar,4,main
4632,69,"NO, I'm sorry I only have cigarettes.",NA,main,Graduated High-school,208141,1672165879722,1672165671581,female,dutyFree-smokes,English,29952,dutyFree,5,main
4607,60,London,NA,London,Graduated College,232254,1672163527107,1672163294853,female,airport-usa,English,17498,airport,1,filler
4607,60,"Sorry, I don't have that.",NA,main,Graduated College,232254,1672163527107,1672163294853,female,friendsActivities-boardGames,English,47887,friendsActivities,2,main
4607,60,There aren't any tigers but we could see a lion.,NA,main,Graduated College,232254,1672163527107,1672163294853,female,zoo-xl,English,38855,zoo,3,main
4607,60,No sorry but we can offer pilates.,NA,main,Graduated College,232254,1672163527107,1672163294853,female,gym-yoga,English,30326,gymActivities,4,main
4607,60,No but I do have an agarve plant.,NA,main,Graduated College,232254,1672163527107,1672163294853,female,interior-green,English,61124,interior,5,main
4609,41,No there isnt,NA,main,Higher degree,66202,1672164756012,1672164689810,female,touristInfo-childTheatre,English,10817,touristInfo,1,main
4609,41,No we don't,NA,main,Higher degree,66202,1672164756012,1672164689810,female,petAdoption-dogs,English,10428,petAdoption,2,main
4609,41,No there isnt,NA,main,Higher degree,66202,1672164756012,1672164689810,female,bookingAgency-lowClassAccommodation,English,10730,bookingAgency,3,main
4609,41,Classic,NA,classic,Higher degree,66202,1672164756012,1672164689810,female,music-hardrock,English,11271,music,4,filler
4609,41,No we dont,NA,main,Higher degree,66202,1672164756012,1672164689810,female,electronics-laptop,English,6633,electronics,5,main
4616,27,"Yeah, do you want to play?",NA,main,Higher degree,132469,1672164859766,1672164727297,female,friendsActivities-boardGames,NA,23181,friendsActivities,1,main
4616,27,classic,NA,classic,Higher degree,132469,1672164859766,1672164727297,female,music-hardrock,NA,8824,music,2,filler
4616,27,"No sorry, we have the MacBook Air though if that interests you.",NA,main,Higher degree,132469,1672164859766,1672164727297,female,electronics-laptop,NA,25738,electronics,3,main
4616,27,"Unfortunately not this year, but you can try either carpentry or water colour painting.",NA,main,Higher degree,132469,1672164859766,1672164727297,female,kidsActivities-crafts,NA,41258,kidsActivities,4,main
4616,27,"Not a cake, but we have raspberry pie.",NA,main,Higher degree,132469,1672164859766,1672164727297,female,cafe-pie,NA,21221,cafe,5,main
4637,56,motorcycle,NA,motorcycle,Higher degree,293013,1672166014283,1672165721270,male,carRental-fun,English,28941,carRental,1,filler
4637,56,Not as far as i know,NA,main,Higher degree,293013,1672166014283,1672165721270,male,bookingAgency-lowClassAccommodation,English,42849,bookingAgency,2,main
4637,56,"No, but i have a macbook air",NA,main,Higher degree,293013,1672166014283,1672165721270,male,electronics-laptop,English,48173,electronics,3,main
4637,56,"No, would you like an agave plant or some tulips instead?",NA,main,Higher degree,293013,1672166014283,1672165721270,male,interior-green,English,60151,interior,4,main
4637,56,"No, would french love letters be of any interest?",NA,main,Higher degree,293013,1672166014283,1672165721270,male,books-romance,English,41909,books,5,main
4614,30,sculpture,NA,sculpture,Graduated College,142055,1672164834373,1672164692318,male,art-painting,English,17962,art,1,filler
4614,30,We can go and see the lions which are similar to tigers.,NA,main,Graduated College,142055,1672164834373,1672164692318,male,zoo-xl,English,32390,zoo,2,main
4614,30,"No, but we do have a selection of sweatshirts.",NA,main,Graduated College,142055,1672164834373,1672164692318,male,clothing-clothes,English,24283,clothing,3,main
4614,30,I have some tulips or an agave plant.,NA,main,Graduated College,142055,1672164834373,1672164692318,male,interior-green,English,29872,interior,4,main
4614,30,"No, but we do have French love letters.",NA,main,Graduated College,142055,1672164834373,1672164692318,male,books-romance,English,20315,books,5,main
4617,24,We have kickboxing classes - would you be interested in that?,NA,main,Graduated College,183518,1672164871173,1672164687655,female,gym-boxing,"English, Japanese",25192,gymActivities,1,main
4617,24,I don't at the moment. Do you have any watercolour artists you like?,NA,main,Graduated College,183518,1672164871173,1672164687655,female,interior-deco,"English, Japanese",42953,interior,2,main
4617,24,London,NA,London,Graduated College,183518,1672164871173,1672164687655,female,airport-europe-UPDATED,"English, Japanese",7099,airport,3,filler
4617,24,"Sorry, we don't have gymnastics, but why don't you give acrobatics or karate a go? Or we have watercolour painting as well.",NA,main,Graduated College,183518,1672164871173,1672164687655,female,kidsActivities-sports,"English, Japanese",32921,kidsActivities,4,main
4617,24,I haven't got Netflix but I've got some movies we could watch. Take a look and pick out something you like!,NA,main,Graduated College,183518,1672164871173,1672164687655,female,friendsActivities-videoEntertainment,"English, Japanese",34546,friendsActivities,5,main
4624,22,"Unfortunately, we do not have any earrings.",NA,main,Higher degree,111973,1672165025747,1672164913774,female,clothing-acc,English,15714,clothing,1,main
4624,22,London,NA,London,Higher degree,111973,1672165025747,1672164913774,female,airport-europe-UPDATED,English,5267,airport,2,filler
4624,22,"We do not sell cookies. However, we do sell gingerbread which may suit you.",NA,main,Higher degree,111973,1672165025747,1672164913774,female,dutyFree-sweets,English,19241,dutyFree,3,main
4624,22,"Unfortunately, we do not have any psychological thrillers in stock. We have mystery and adventure books, which may be suitable alternatives.",NA,main,Higher degree,111973,1672165025747,1672164913774,female,books-fantasy,English,31800,books,4,main
4624,22,"I'm sorry honey, there are no chameleons! Would you like to see an iguana instead?",NA,main,Higher degree,111973,1672165025747,1672164913774,female,zoo-reptiles,English,26446,zoo,5,main
4645,32,No I only have a macnook air,NA,main,Graduated High-school,114897,1672168586674,1672168471777,male,electronics-laptop,English,25916,electronics,1,main
4645,32,No but we do have raspberry pie,NA,main,Graduated High-school,114897,1672168586674,1672168471777,male,cafe-pie,English,17965,cafe,2,main
4645,32,No but we do have water ski equipment,NA,main,Graduated High-school,114897,1672168586674,1672168471777,male,waterSport-motor,English,27111,waterSport,3,main
4645,32,classic,NA,classic,Graduated High-school,114897,1672168586674,1672168471777,male,music-hardrock,English,15817,music,4,filler
4645,32,No only cigarettes,NA,main,Graduated High-school,114897,1672168586674,1672168471777,male,dutyFree-smokes,English,14229,dutyFree,5,main
4669,32,classic,NA,classic,Graduated College,166429,1672171749381,1672171582952,female,music-hardrock,English,19046,music,1,filler
4669,32,No. We have a book of french love letters,NA,main,Graduated College,166429,1672171749381,1672171582952,female,books-romance,English,36004,books,2,main
4669,32,Yes we do,NA,main,Graduated College,166429,1672171749381,1672171582952,female,waterSport-motor,English,27255,waterSport,3,main
4669,32,No. We have a MacBook Air,NA,main,Graduated College,166429,1672171749381,1672171582952,female,electronics-laptop,English,24381,electronics,4,main
4669,32,"No, I have an agave plant",NA,main,Graduated College,166429,1672171749381,1672171582952,female,interior-green,English,35646,interior,5,main
4676,39,No sorry we dont,NA,main,Graduated College,293514,1672171892794,1672171599280,male,petAdoption-dogs,English,16364,petAdoption,1,main
4676,39,Yes we sure do,NA,main,Graduated College,293514,1672171892794,1672171599280,male,dutyFree-smokes,English,134256,dutyFree,2,main
4676,39,We've got french love letters will that do?,NA,main,Graduated College,293514,1672171892794,1672171599280,male,books-romance,English,28662,books,3,main
4676,39,"Unfortunately there is no Tiger, but the lions are good!",NA,main,Graduated College,293514,1672171892794,1672171599280,male,zoo-xl,English,40426,zoo,4,main
4676,39,Sculpture,NA,sculpture,Graduated College,293514,1672171892794,1672171599280,male,art-painting,English,36097,art,5,filler
4608,37,"Yes, do you want to go there first? Or shall we just find them when we have seen other animals first?",NA,main,Graduated College,294707,1672163620570,1672163325864,female,zoo-reptiles,English,81528,zoo,1,main
4608,37,Hi sorry no we don't have any of these in stock.,NA,main,Graduated College,294707,1672163620570,1672163325864,female,electronics-console,English,21723,electronics,2,main
4608,37,Sorry we do not sell cookies but we have gingerbread or granola bars as an alternative?,NA,main,Graduated College,294707,1672163620570,1672163325864,female,dutyFree-sweets,English,34775,dutyFree,3,main
4608,37,"We do not stock psychological thrillers, but if you are still interested in buying a book, maybe a mystery instead?",NA,main,Graduated College,294707,1672163620570,1672163325864,female,books-fantasy,English,55303,books,4,main
4608,37,"There isn't any of those vacancies at the moment, however we do have either an electrican job or a car mechanic. If these aren't suitable, i can take your details to forward any jobs that do come in",NA,teacher,Graduated College,294707,1672163620570,1672163325864,female,jobCenter-engineer,English,80701,jobCenter,5,filler
4619,34,"No, I have chardonnay",NA,main,Graduated High-school,208664,1672164898665,1672164690001,female,bar-whiteWine,British,31542,bar,1,main
4619,34,Motorcycle,NA,motorcycle,Graduated High-school,208664,1672164898665,1672164690001,female,carRental-fun,British,14904,carRental,2,filler
4619,34,"No, but we do offer Pilates",NA,main,Graduated High-school,208664,1672164898665,1672164690001,female,gym-yoga,British,50345,gymActivities,3,main
4619,34,No but we have a circus performance,NA,main,Graduated High-school,208664,1672164898665,1672164690001,female,touristInfo-childTheatre,British,26526,touristInfo,4,main
4619,34,No but we have checkers and monopoly,NA,main,Graduated High-school,208664,1672164898665,1672164690001,female,friendsActivities-boardGames,British,28249,friendsActivities,5,main
4623,55,"No, sorry we don't serve ided tea",Just to say good luck,main,Higher degree,312976,1672165009891,1672164696915,male,bar-tea,English,48343,bar,1,main
4623,55,London,Just to say good luck,London,Higher degree,312976,1672165009891,1672164696915,male,airport-europe-UPDATED,English,65936,airport,2,filler
4623,55,We don't rent canoes but kayaks are similar,Just to say good luck,main,Higher degree,312976,1672165009891,1672164696915,male,waterSport-muscle,English,51478,waterSport,3,main
4623,55,"If you accept cheese pizza is vegetarian, then yes we do",Just to say good luck,main,Higher degree,312976,1672165009891,1672164696915,male,cafe-pizza,English,41312,cafe,4,main
4623,55,"I'm sorry, we only have kickboxing",Just to say good luck,main,Higher degree,312976,1672165009891,1672164696915,male,gym-boxing,English,29874,gymActivities,5,main
4653,45,The DJ might play some electronic music.,NA,main,Graduated High-school,217021,1672168702974,1672168485953,female,touristInfo-clubbing,English,43859,touristInfo,1,main
4653,45,We do a kickboxing class.,NA,main,Graduated High-school,217021,1672168702974,1672168485953,female,gym-boxing,English,27015,gymActivities,2,main
4653,45,classic,NA,classic,Graduated High-school,217021,1672168702974,1672168485953,female,music-softrock,English,20484,music,3,filler
4653,45,"Sorry, we don’t have any of those in stock at the moment.",NA,main,Graduated High-school,217021,1672168702974,1672168485953,female,books-fantasy,English,32201,books,4,main
4653,45,We have kayaks.,NA,main,Graduated High-school,217021,1672168702974,1672168485953,female,waterSport-muscle,English,18761,waterSport,5,main
4605,23,classic,NA,classic,Graduated College,247064,1672163430843,1672163183779,female,music-softrock,English,7096,music,1,filler
4605,23,"No, there are no single rooms in any five-star hotels available. The closest to this is a suite in a four-star hotel.",NA,main,Graduated College,247064,1672163430843,1672163183779,female,bookingAgency-highClassAccommodation,English,95905,bookingAgency,2,main
4605,23,"Unfortunately we do not offer boxing classes. However, we do offer kickboxing, karate and pilates.",NA,main,Graduated College,247064,1672163430843,1672163183779,female,gym-boxing,English,42229,gymActivities,3,main
4605,23,Unfortunately we do not have any playstations in stock. However we do have other electronics and game consoles.,NA,main,Graduated College,247064,1672163430843,1672163183779,female,electronics-console,English,37760,electronics,4,main
4605,23,"We have cheese pizza which is vegeterian, however we do not have any pizzas with vegetable toppings.",NA,main,Graduated College,247064,1672163430843,1672163183779,female,cafe-pizza,English,45019,cafe,5,main
4621,28,"No sorry, we do not have any Hawaiian shirts in stock.",NA,main,Higher degree,236006,1672164927668,1672164691662,female,clothing-clothes,English,18069,clothing,1,main
4621,28,teacher,NA,teacher,Higher degree,236006,1672164927668,1672164691662,female,jobCenter-office,English,15459,jobCenter,2,filler
4621,28,"No sorry, we do not rent jet skis.",NA,main,Higher degree,236006,1672164927668,1672164691662,female,waterSport-motor,English,24695,waterSport,3,main
4621,28,"No sorry, we do not have a bed in a youth hostel available for tomorrow night.",NA,main,Higher degree,236006,1672164927668,1672164691662,female,bookingAgency-lowClassAccommodation,English,27676,bookingAgency,4,main
4621,28,"No sorry, we do not offer yoga classes.",NA,main,Higher degree,236006,1672164927668,1672164691662,female,gym-yoga,English,26889,gymActivities,5,main
4626,36,no there is not,NA,main,Higher degree,111581,1672165793490,1672165681909,male,touristInfo-childTheatre,english,31488,touristInfo,1,main
4626,36,motorcycle,NA,motorcycle,Higher degree,111581,1672165793490,1672165681909,male,carRental-fun,english,13979,carRental,2,filler
4626,36,no there isn't one here,NA,main,Higher degree,111581,1672165793490,1672165681909,male,zoo-xl,english,17342,zoo,3,main
4626,36,nope,NA,main,Higher degree,111581,1672165793490,1672165681909,male,interior-green,english,15800,interior,4,main
4626,36,i do not,NA,main,Higher degree,111581,1672165793490,1672165681909,male,friendsActivities-boardGames,english,11511,friendsActivities,5,main
4633,40,London,NA,London,Graduated College,200187,1672165880913,1672165680726,male,airport-europe-UPDATED,English,26816,airport,1,filler
4633,40,"No, but there is a hip hop show, a circus show and a jazz show",NA,main,Graduated College,200187,1672165880913,1672165680726,male,touristInfo-clubbing,English,66245,touristInfo,2,main
4633,40,There are no chameleons little Dave,NA,main,Graduated College,200187,1672165880913,1672165680726,male,zoo-reptiles,English,32652,zoo,3,main
4633,40,No but you could try kick-boxing if you like,NA,main,Graduated College,200187,1672165880913,1672165680726,male,gym-boxing,English,24868,gymActivities,4,main
4633,40,No but we have gerbils if you like,NA,main,Graduated College,200187,1672165880913,1672165680726,male,petAdoption-hamster,English,22212,petAdoption,5,main
4643,60,We have an acrobatics class which is similar to gymnastics.,NA,main,Graduated College,678649,1672166354788,1672165676139,male,kidsActivities-sports,English,110730,kidsActivities,1,main
4643,60,Yes. We'll see it soon. Let's see all the animals. We'll be at the reptile house soon.,NA,main,Graduated College,678649,1672166354788,1672165676139,male,zoo-reptiles,English,212361,zoo,2,main
4643,60,"The closest we have to cookies, sir, are granola bars and gingerbread.",NA,main,Graduated College,678649,1672166354788,1672165676139,male,dutyFree-sweets,English,82681,dutyFree,3,main
4643,60,No. I have oil paintings though. Would you like to have a look at them ? I painted them myself.,NA,main,Graduated College,678649,1672166354788,1672165676139,male,interior-deco,English,148032,interior,4,main
4643,60,teacher,NA,teacher,Graduated College,678649,1672166354788,1672165676139,male,jobCenter-engineer,English,29630,jobCenter,5,filler
4613,30,"I'm sorry, we don't have any currently.",NA,main,Graduated College,112591,1672164823439,1672164710848,female,books-fantasy,English,16966,books,1,main
4613,30,"I'm sorry we don't, but we do have iced coffee if that's any good for you?",NA,main,Graduated College,112591,1672164823439,1672164710848,female,bar-tea,English,22371,bar,2,main
4613,30,"We don't unfortunately, would you like me to show you what we have in stock?",NA,main,Graduated College,112591,1672164823439,1672164710848,female,electronics-console,English,20503,electronics,3,main
4613,30,London,NA,London,Graduated College,112591,1672164823439,1672164710848,female,airport-europe-UPDATED,English,6548,airport,4,filler
4613,30,"There is a club event, but it's with hip hop rather than electronic music.",NA,main,Graduated College,112591,1672164823439,1672164710848,female,touristInfo-clubbing,English,26191,touristInfo,5,main
4618,29,London,NA,London,Graduated College,195248,1672164888791,1672164693543,female,airport-usa,English,15664,airport,1,filler
4618,29,No I’m afraid not,NA,main,Graduated College,195248,1672164888791,1672164693543,female,bookingAgency-lowClassAccommodation,English,38113,bookingAgency,2,main
4618,29,No but I have an agave plant,NA,main,Graduated College,195248,1672164888791,1672164693543,female,interior-green,English,36281,interior,3,main
4618,29,No but I have books of French love letters,NA,main,Graduated College,195248,1672164888791,1672164693543,female,books-romance,English,28609,books,4,main
4618,29,We only have Chardonnay I’m afraid,NA,main,Graduated College,195248,1672164888791,1672164693543,female,bar-whiteWine,English,23698,bar,5,main
4628,25,London,NA,London,Higher degree,150375,1672165832167,1672165681792,female,airport-usa,English,14452,airport,1,filler
4628,25,Yes,NA,main,Higher degree,150375,1672165832167,1672165681792,female,interior-green,English,39416,interior,2,main
4628,25,Yes there is.,NA,main,Higher degree,150375,1672165832167,1672165681792,female,books-romance,English,14751,books,3,main
4628,25,No there is not,NA,main,Higher degree,150375,1672165832167,1672165681792,female,kidsActivities-crafts,English,19768,kidsActivities,4,main
4628,25,There is a circus show,NA,main,Higher degree,150375,1672165832167,1672165681792,female,touristInfo-childTheatre,English,20435,touristInfo,5,main
4630,36,"No, but I do have monopoly!",NA,main,Graduated College,158740,1672165844403,1672165685663,female,friendsActivities-boardGames,NA,17245,friendsActivities,1,main
4630,36,"Hmm, not exactly but I have French love letters, would that be any good?",NA,main,Graduated College,158740,1672165844403,1672165685663,female,books-romance,NA,20813,books,2,main
4630,36,"There isn't anything in a hostel, maybe a budget room or cheap b&b would be useful?",NA,main,Graduated College,158740,1672165844403,1672165685663,female,bookingAgency-lowClassAccommodation,NA,39627,bookingAgency,3,main
4630,36,"We only have sweatshirts unfortunately, but I might be able to get something in if you could come back",NA,main,Graduated College,158740,1672165844403,1672165685663,female,clothing-clothes,NA,29649,clothing,4,main
4630,36,sculpture,NA,sculpture,Graduated College,158740,1672165844403,1672165685663,female,art-painting,NA,11891,art,5,filler
4644,58,"No we do not but we have an Xbox, a game boy and a MacBook air",NA,main,Graduated College,272968,1672167891866,1672167618898,male,electronics-console,English,51042,electronics,1,main
4644,58,I have Netflix for the movies but I also have some games that we could play first,NA,main,Graduated College,272968,1672167891866,1672167618898,male,friendsActivities-videoEntertainment,English,45033,friendsActivities,2,main
4644,58,"No we do not but would you like to try kickboxing, karate or even some pilates",NA,main,Graduated College,272968,1672167891866,1672167618898,male,gym-boxing,English,56228,gymActivities,3,main
4644,58,No we have no canoes but we do offer kayaks and pedal boats,NA,main,Graduated College,272968,1672167891866,1672167618898,male,waterSport-muscle,English,50817,waterSport,4,main
4644,58,sculpture,NA,sculpture,Graduated College,272968,1672167891866,1672167618898,male,art-drawing,English,27421,art,5,filler
4610,30,classic,NA,classic,Higher degree,106785,1672164788994,1672164682209,female,music-softrock,English,15503,music,1,filler
4610,30,"No, but we have a gameboy or xbox",NA,main,Higher degree,106785,1672164788994,1672164682209,female,electronics-console,English,18099,electronics,2,main
4610,30,"
No we don't",NA,main,Higher degree,106785,1672164788994,1672164682209,female,bar-tea,English,12580,bar,3,main
4610,30,No but we have gerbils,NA,main,Higher degree,106785,1672164788994,1672164682209,female,petAdoption-hamster,English,10279,petAdoption,4,main
4610,30,No we don't,NA,main,Higher degree,106785,1672164788994,1672164682209,female,books-fantasy,English,11413,books,5,main
4629,45,"No, we have a suite available in a four star hotel or an apartment close to the city.",NA,main,Higher degree,166231,1672165840245,1672165674014,female,bookingAgency-highClassAccommodation,English,77851,bookingAgency,1,main
4629,45,teacher,NA,teacher,Higher degree,166231,1672165840245,1672165674014,female,jobCenter-engineer,English,12708,jobCenter,2,filler
4629,45,Yes we have a cheese piazza,NA,main,Higher degree,166231,1672165840245,1672165674014,female,cafe-pizza,English,11359,cafe,3,main
4629,45,We don't have gymnastics but we do have acrobatics,NA,main,Higher degree,166231,1672165840245,1672165674014,female,kidsActivities-sports,English,26999,kidsActivities,4,main
4629,45,Unfortunately not,NA,main,Higher degree,166231,1672165840245,1672165674014,female,clothing-acc,English,16144,clothing,5,main
4634,69,Sorry i do not so I have arranged either Monopoloy or checkers,NA,main,Did not graduate High-school,227212,1672165893433,1672165666221,male,friendsActivities-boardGames,English,33660,friendsActivities,1,main
4634,69,teacher,NA,teacher,Did not graduate High-school,227212,1672165893433,1672165666221,male,jobCenter-office,English,22390,jobCenter,2,filler
4634,69,Sorry we only have Chardonnay or iced coffee,NA,main,Did not graduate High-school,227212,1672165893433,1672165666221,male,bar-whiteWine,English,32403,bar,3,main
4634,69,Sorry no but i can offer sweatshirts,NA,main,Did not graduate High-school,227212,1672165893433,1672165666221,male,clothing-clothes,English,27992,clothing,4,main
4634,69,Sorry the only dog we have available is golden retrievers,NA,main,Did not graduate High-school,227212,1672165893433,1672165666221,male,petAdoption-dogs,English,38591,petAdoption,5,main
4654,53,I have a lovely oil painting if you want it.,NA,main,Higher degree,262809,1672168750445,1672168487636,male,interior-deco,English,94978,interior,1,main
4654,53,"No, sorry I don't",NA,main,Higher degree,262809,1672168750445,1672168487636,male,petAdoption-hamster,English,20469,petAdoption,2,main
4654,53,sculpture,NA,sculpture,Higher degree,262809,1672168750445,1672168487636,male,art-drawing,English,20049,art,3,filler
4654,53,"Oh yes, we have wonderful kayaks",NA,main,Higher degree,262809,1672168750445,1672168487636,male,waterSport-muscle,English,41159,waterSport,4,main
4654,53,"Nothing that would suit your needs sir, sorry",NA,main,Higher degree,262809,1672168750445,1672168487636,male,bookingAgency-highClassAccommodation,English,45955,bookingAgency,5,main
4657,62,"We are hosting a club event with a hip hop DJ, would that be the one you were thinking of?",Nothing to add.,main,Graduated College,307308,1672168785168,1672168477860,male,touristInfo-clubbing,English,78970,touristInfo,1,main
4657,62,"Afraid not, but i've prepared some movies and games for us all.",Nothing to add.,main,Graduated College,307308,1672168785168,1672168477860,male,friendsActivities-videoEntertainment,English,47628,friendsActivities,2,main
4657,62,"I'm sorry, we don't currently have earrings in stock.",Nothing to add.,main,Graduated College,307308,1672168785168,1672168477860,male,clothing-acc,English,36811,clothing,3,main
4657,62,teacher,Nothing to add.,teacher,Graduated College,307308,1672168785168,1672168477860,male,jobCenter-engineer,English,17724,jobCenter,4,filler
4657,62,"No, sorry, but we do have gerbils if you're open to another type of small pet.",Nothing to add.,main,Graduated College,307308,1672168785168,1672168477860,male,petAdoption-hamster,English,54506,petAdoption,5,main
4670,33,Our only vegi pizza the cheese pizza,NA,main,Graduated College,170482,1672171760039,1672171589557,male,cafe-pizza,English,53733,cafe,1,main
4670,33,No sorry,NA,main,Graduated College,170482,1672171760039,1672171589557,male,bar-tea,English,12635,bar,2,main
4670,33,Yes we do have netflix,NA,main,Graduated College,170482,1672171760039,1672171589557,male,friendsActivities-videoEntertainment,English,27891,friendsActivities,3,main
4670,33,No but I do have water colours.,NA,main,Graduated College,170482,1672171760039,1672171589557,male,interior-deco,English,26988,interior,4,main
4670,33,Teacher,NA,teacher,Graduated College,170482,1672171760039,1672171589557,male,jobCenter-engineer,English,14851,jobCenter,5,filler
4611,22,classic,NA,classic,Graduated College,108851,1672164802989,1672164694138,female,music-softrock,English,8663,music,1,filler
4611,22,No.,NA,main,Graduated College,108851,1672164802989,1672164694138,female,clothing-acc,English,17722,clothing,2,main
4611,22,No.,NA,main,Graduated College,108851,1672164802989,1672164694138,female,touristInfo-clubbing,English,11379,touristInfo,3,main
4611,22,"I have some movies we could watch, but they aren't on Netflix.",NA,main,Graduated College,108851,1672164802989,1672164694138,female,friendsActivities-videoEntertainment,English,28643,friendsActivities,4,main
4611,22,"No, but our pepperoni is excellent.",NA,main,Graduated College,108851,1672164802989,1672164694138,female,cafe-pizza,English,22783,cafe,5,main
4612,30,"Yes, Saturdays at 10am",NA,main,Graduated High-school,135173,1672164815737,1672164680564,female,gym-yoga,NA,21815,gymActivities,1,main
4612,30,Yes,NA,main,Graduated High-school,135173,1672164815737,1672164680564,female,waterSport-motor,NA,31995,waterSport,2,main
4612,30,London,NA,London,Graduated High-school,135173,1672164815737,1672164680564,female,airport-usa,NA,18401,airport,3,filler
4612,30,Yes,NA,main,Graduated High-school,135173,1672164815737,1672164680564,female,books-romance,NA,12892,books,4,main
4612,30,No sorry,NA,main,Graduated High-school,135173,1672164815737,1672164680564,female,electronics-laptop,NA,11822,electronics,5,main
4620,28,"Hello, unfortunately we don’t have any hamsters but we do have gerbils, would you like to have a look?",NA,main,Higher degree,231683,1672164906357,1672164674674,female,petAdoption-hamster,English,64373,petAdoption,1,main
4620,28,No it isn’t however could i interest you in this one?,NA,main,Higher degree,231683,1672164906357,1672164674674,female,bookingAgency-highClassAccommodation,English,51081,bookingAgency,2,main
4620,28,Teacher,NA,teacher,Higher degree,231683,1672164906357,1672164674674,female,jobCenter-engineer,English,22760,jobCenter,3,filler
4620,28,We will work our away around and get there eventually,NA,main,Higher degree,231683,1672164906357,1672164674674,female,zoo-reptiles,English,30836,zoo,4,main
4620,28,I don’t but I can see what I can do,NA,main,Higher degree,231683,1672164906357,1672164674674,female,bar-tea,English,20144,bar,5,main
4642,68,Sorry i have only have gingerbread and granola bars for sale.,NA,main,Did not graduate High-school,506044,1672166176808,1672165670764,male,dutyFree-sweets,English,112363,dutyFree,1,main
4642,68,"No, but have a oil painting you can look at.",NA,main,Did not graduate High-school,506044,1672166176808,1672165670764,male,interior-deco,English,92832,interior,2,main
4642,68,Sorry they do not have a chameleon but they have other animals to see in the zoo.,NA,main,Did not graduate High-school,506044,1672166176808,1672165670764,male,zoo-reptiles,English,92199,zoo,3,main
4642,68,No do not have Netflix But have some movies we can watch.,NA,main,Did not graduate High-school,506044,1672166176808,1672165670764,male,friendsActivities-videoEntertainment,English,133815,friendsActivities,4,main
4642,68,classic,NA,classic,Did not graduate High-school,506044,1672166176808,1672165670764,male,music-softrock,English,21444,music,5,filler
4660,38,"No but we have an apartment close to the city, a room in a bed and breakfast and a suite in a four-star hotel available.",NA,main,Graduated College,340022,1672168822320,1672168482298,male,bookingAgency-highClassAccommodation,English,164492,bookingAgency,1,main
4660,38,"No but I have some printed photographs, and an oil painting if you're interested?",NA,main,Graduated College,340022,1672168822320,1672168482298,male,interior-deco,English,81303,interior,2,main
4660,38,motorcycle,NA,motorcycle,Graduated College,340022,1672168822320,1672168482298,male,carRental-moving,English,11905,carRental,3,filler
4660,38,"Nope, but we have iced coffee, and soda.",NA,main,Graduated College,340022,1672168822320,1672168482298,male,bar-tea,English,20488,bar,4,main
4660,38,"No but we can offer pedal boats, water ski equipment and kayaks.",NA,main,Graduated College,340022,1672168822320,1672168482298,male,waterSport-muscle,English,29109,waterSport,5,main
4661,70,I am sorry but we have no canoes at present but can offer pedal boats or kayaks.,NA,main,Graduated High-school,355447,1672168857407,1672168501960,female,waterSport-muscle,English,73529,waterSport,1,main
4661,70,I don’t think they have chameleons but we can have a look at the iguanas.,NA,main,Graduated High-school,355447,1672168857407,1672168501960,female,zoo-reptiles,English,52104,zoo,2,main
4661,70,I’m sorry but we do not stock earrings but have a wide choice of necklaces.,NA,main,Graduated High-school,355447,1672168857407,1672168501960,female,clothing-acc,English,50799,clothing,3,main
4661,70,I’m sorry but we are out of stock of psychological thrillers.,NA,main,Graduated High-school,355447,1672168857407,1672168501960,female,books-fantasy,English,41652,books,4,main
4661,70,Motorcycle,NA,motorcycle,Graduated High-school,355447,1672168857407,1672168501960,female,carRental-moving,English,37033,carRental,5,filler
4663,22,teacher,NA,teacher,Graduated College,344648,1672169075225,1672168730577,male,jobCenter-office,english,25049,jobCenter,1,filler
4663,22,we have sweatshirts,NA,main,Graduated College,344648,1672169075225,1672168730577,male,clothing-clothes,english,89078,clothing,2,main
4663,22,"i have monopoly,some movies,checkers",NA,main,Graduated College,344648,1672169075225,1672168730577,male,friendsActivities-boardGames,english,97785,friendsActivities,3,main
4663,22,we have cigarettes,NA,main,Graduated College,344648,1672169075225,1672168730577,male,dutyFree-smokes,english,48418,dutyFree,4,main
4663,22,there is giraffe and lion,NA,main,Graduated College,344648,1672169075225,1672168730577,male,zoo-xl,english,43639,zoo,5,main
4625,40,no sorry,NA,main,Graduated College,106425,1672165773127,1672165666702,female,dutyFree-smokes,English,11306,dutyFree,1,main
4625,40,I'm afraid we don't but we do have other shorts.,NA,main,Graduated College,106425,1672165773127,1672165666702,female,clothing-clothes,English,19911,clothing,2,main
4625,40,"Ah no we don't but I have got checkers, movies and monopoly",NA,main,Graduated College,106425,1672165773127,1672165666702,female,friendsActivities-boardGames,English,24483,friendsActivities,3,main
4625,40,sculpture,NA,sculpture,Graduated College,106425,1672165773127,1672165666702,female,art-painting,English,10243,art,4,filler
4625,40,ah sorry I don't but I have an agave plant you could have?,NA,main,Graduated College,106425,1672165773127,1672165666702,female,interior-green,English,21573,interior,5,main
4635,39,We have books of French love letters that may contain poems.,NA,main,Graduated High-school,294443,1672165986021,1672165691578,female,books-romance,English,65512,books,1,main
4635,39,"No, but I have Monopoly and checkers.",NA,main,Graduated High-school,294443,1672165986021,1672165691578,female,friendsActivities-boardGames,English,44872,friendsActivities,2,main
4635,39,"They don't have a tiger, but we can go see the lion.",NA,main,Graduated High-school,294443,1672165986021,1672165691578,female,zoo-xl,English,45099,zoo,3,main
4635,39,"Sorry, we don't have Hawaiian shirts.",NA,main,Graduated High-school,294443,1672165986021,1672165691578,female,clothing-clothes,English,60615,clothing,4,main
4635,39,classic,NA,classic,Graduated High-school,294443,1672165986021,1672165691578,female,music-hardrock,English,22745,music,5,filler
4636,34,"I don't have an aloe vera plant right now, I do have an agave plant which looks very similar if you want it.",NA,main,Graduated High-school,327744,1672165996743,1672165668999,male,interior-green,English,111712,interior,1,main
4636,34,"We don't have any Dalmatians, if you are looking for a dog of similar size we do have golden retrievers.",NA,main,Graduated High-school,327744,1672165996743,1672165668999,male,petAdoption-dogs,English,76216,petAdoption,2,main
4636,34,"We currently don't offer yoga classes, pilates classes are very similar if you wish to try it out.",NA,main,Graduated High-school,327744,1672165996743,1672165668999,male,gym-yoga,English,70191,gymActivities,3,main
4636,34,classic,NA,classic,Graduated High-school,327744,1672165996743,1672165668999,male,music-hardrock,English,16648,music,4,filler
4636,34,No but we do have a MacBook Air,NA,main,Graduated High-school,327744,1672165996743,1672165668999,male,electronics-laptop,English,31024,electronics,5,main
4646,28,No we do not have a veggie pizza,NA,main,Graduated High-school,100220,1672168587232,1672168487012,male,cafe-pizza,English,15340,cafe,1,main
4646,28,London,NA,London,Graduated High-school,100220,1672168587232,1672168487012,male,airport-europe-UPDATED,English,10093,airport,2,filler
4646,28,No it is not available for tomorrow night,NA,main,Graduated High-school,100220,1672168587232,1672168487012,male,bookingAgency-highClassAccommodation,English,21824,bookingAgency,3,main
4646,28,Sorry I do not have any,NA,main,Graduated High-school,100220,1672168587232,1672168487012,male,interior-deco,English,18186,interior,4,main
4646,28,Sorry we do not have any hamsters,NA,main,Graduated High-school,100220,1672168587232,1672168487012,male,petAdoption-hamster,English,12006,petAdoption,5,main
4679,36,"I don't, but I'd quite like one, next time I'm at the garden centre, I'll pick one up for each of us. You can have one as a house warminf present.",NA,main,Graduated High-school,371599,1672171954719,1672171583120,male,interior-green,English,110021,interior,1,main
4679,36,"I'm very sorry, we don't have that in stock, I'll speak to our other stores and see if we have anything like that in stock elsewhere for you.",NA,main,Graduated High-school,371599,1672171954719,1672171583120,male,clothing-clothes,English,71739,clothing,2,main
4679,36,"I'm really sorry, we don't currently offer yoga, what will do is mention it to our manager as other people have also asked about yoga. In the meantime would you like to try a free plates session?",NA,main,Graduated High-school,371599,1672171954719,1672171583120,male,gym-yoga,English,88536,gymActivities,3,main
4679,36,classic,NA,classic,Graduated High-school,371599,1672171954719,1672171583120,male,music-hardrock,English,22963,music,4,filler
4679,36,We don't have any cake today but we have a beautiful raspberry pie that I'd reccomend.,NA,main,Graduated High-school,371599,1672171954719,1672171583120,male,cafe-pie,English,48993,cafe,5,main
4683,43,no. woudl you like ice tea instead?,NA,main,Higher degree,101490,1672172196659,1672172095169,female,bar-tea,english,13770,bar,1,main
4683,43,"no, we do kickboxing.",NA,main,Higher degree,101490,1672172196659,1672172095169,female,gym-boxing,english,12035,gymActivities,2,main
4683,43,they don't have chameleons here,NA,main,Higher degree,101490,1672172196659,1672172095169,female,zoo-reptiles,english,18181,zoo,3,main
4683,43,motorcycle,NA,motorcycle,Higher degree,101490,1672172196659,1672172095169,female,carRental-moving,english,10429,carRental,4,filler
4683,43,no. i can offer you an apartmnet or a suite in a 4 star hotel.,NA,main,Higher degree,101490,1672172196659,1672172095169,female,bookingAgency-highClassAccommodation,english,28924,bookingAgency,5,main
4706,23,motorcycle,NA,motorcycle,Graduated College,119359,1672240253405,1672240134046,male,carRental-fun,English,8861,carRental,1,filler
4706,23,"No, we offer kickboxing, zumba and pilates",NA,main,Graduated College,119359,1672240253405,1672240134046,male,gym-yoga,English,27535,gymActivities,2,main
4706,23,"No, only acrobatics, watercolor and carpentry",NA,main,Graduated College,119359,1672240253405,1672240134046,male,kidsActivities-crafts,English,18788,kidsActivities,3,main
4706,23,there is a circus,NA,main,Graduated College,119359,1672240253405,1672240134046,male,touristInfo-childTheatre,English,24917,touristInfo,4,main
4706,23,"no, only golden retirevers, gerbils and chihuahuas",NA,main,Graduated College,119359,1672240253405,1672240134046,male,petAdoption-dogs,English,21142,petAdoption,5,main
4638,39,"Hi, we don't have any electronic music events in town today but we do have several other music events. Would you be interested to know more about these?",NA,main,Higher degree,363856,1672166025082,1672165661226,male,touristInfo-clubbing,English,110468,touristInfo,1,main
4638,39,"Hello, well we don't have any in right now. Is there something about hamsters that really interest you? Because we do have other animal in need of rehoming",NA,main,Higher degree,363856,1672166025082,1672165661226,male,petAdoption-hamster,English,70223,petAdoption,2,main
4638,39,Sculpture,NA,sculpture,Higher degree,363856,1672166025082,1672165661226,male,art-drawing,English,44662,art,3,filler
4638,39,While we don't have any directly of that genre please take a look at these other titles that may have something you are looking for,NA,main,Higher degree,363856,1672166025082,1672165661226,male,books-fantasy,English,59352,books,4,main
4638,39,We don't have a vegetable pizza today. If you are vegetarian we have a cheese pizza. Is that good for you?,NA,main,Higher degree,363856,1672166025082,1672165661226,male,cafe-pizza,English,54111,cafe,5,main
4641,49,Sculpture,NA,sculpture,Did not graduate High-school,201162,1672166111327,1672165910165,female,art-painting,English,18849,art,1,filler
4641,49,I’m afraid we don’t at present,NA,main,Did not graduate High-school,201162,1672166111327,1672165910165,female,gym-yoga,English,46218,gymActivities,2,main
4641,49,Certainly,NA,main,Did not graduate High-school,201162,1672166111327,1672165910165,female,waterSport-motor,English,21445,waterSport,3,main
4641,49,No but we do have raspberry pie,NA,main,Did not graduate High-school,201162,1672166111327,1672165910165,female,cafe-pie,English,27774,cafe,4,main
4641,49,No we don’t have any Dalmatian’s at present but we have these other breeds,NA,main,Did not graduate High-school,201162,1672166111327,1672165910165,female,petAdoption-dogs,English,63925,petAdoption,5,main
4649,41,no. but we have gerbils,NA,main,Higher degree,190399,1672168663366,1672168472967,male,petAdoption-hamster,english,22039,petAdoption,1,main
4649,41,sculpture,NA,sculpture,Higher degree,190399,1672168663366,1672168472967,male,art-drawing,english,34817,art,2,filler
4649,41,no. only xbox and gameboy,NA,main,Higher degree,190399,1672168663366,1672168472967,male,electronics-console,english,21995,electronics,3,main
4649,41,it's an iguana.,NA,main,Higher degree,190399,1672168663366,1672168472967,male,zoo-reptiles,english,15345,zoo,4,main
4649,41,no. but I have an oil painting,NA,main,Higher degree,190399,1672168663366,1672168472967,male,interior-deco,english,53304,interior,5,main
4651,60,"No but we have raspberry pie, would you like that?",NA,main,Graduated High-school,201156,1672168679852,1672168478696,male,cafe-pie,English,51312,cafe,1,main
4651,60,"No, sorry. Cigarettes though, would you like those instead?",NA,main,Graduated High-school,201156,1672168679852,1672168478696,male,dutyFree-smokes,English,30234,dutyFree,2,main
4651,60,"No we haven't - we have shorts, necklaces and sweatshirts.",NA,main,Graduated High-school,201156,1672168679852,1672168478696,male,clothing-clothes,English,37411,clothing,3,main
4651,60,teacher,NA,teacher,Graduated High-school,201156,1672168679852,1672168478696,male,jobCenter-office,English,11376,jobCenter,4,filler
4651,60,"I have prepared movies, checkers and Monopoly. I may have scrabble somewhere - shall I have a look?",NA,main,Graduated High-school,201156,1672168679852,1672168478696,male,friendsActivities-boardGames,English,47828,friendsActivities,5,main
4702,54,"No, sorry, we do not, but we do have iced coffee.",NA,main,Graduated College,432511,1672237346494,1672236913983,male,bar-tea,English,71306,bar,1,main
4702,54,"No we do not have any in stock at the moment, sorry.",NA,main,Graduated College,432511,1672237346494,1672236913983,male,clothing-acc,English,67952,clothing,2,main
4702,54,classic,NA,classic,Graduated College,432511,1672237346494,1672236913983,male,music-softrock,English,33287,music,3,filler
4702,54,"No, we can't, there is no chameleon here.",NA,main,Graduated College,432511,1672237346494,1672236913983,male,zoo-reptiles,English,52600,zoo,4,main
4702,54,"No sorry, we don't stock any Playstations. Do any of these other games consoles interest you?",NA,main,Graduated College,432511,1672237346494,1672236913983,male,electronics-console,English,81871,electronics,5,main
4703,44,There is an acrobatics class which is similar to activities you would do in a gymnastics class.,NA,main,Graduated College,896341,1672237798872,1672236902531,male,kidsActivities-sports,English,52680,kidsActivities,1,main
4703,44,I don't have Netflix but I have some movies and games for us to play this evening. You won't miss Netflix trust me!,NA,main,Graduated College,896341,1672237798872,1672236902531,male,friendsActivities-videoEntertainment,English,302246,friendsActivities,2,main
4703,44,No we do not have boxing classes but we offer the following classes if these are of interest to you ?,NA,main,Graduated College,896341,1672237798872,1672236902531,male,gym-boxing,English,57279,gymActivities,3,main
4703,44,motorcycle.,NA,motorcycle,Graduated College,896341,1672237798872,1672236902531,male,carRental-moving,English,35048,carRental,4,filler
4703,44,"I'm sorry but I dont have any cookies at the moment, but I will check for you if we can offer that, I have the following items if these interest you?",NA,main,Graduated College,896341,1672237798872,1672236902531,male,dutyFree-sweets,English,255950,dutyFree,5,main
4710,47,"Hello, sorry we don't offer boxing classes but perhaps you may be interested in our kickboxing or karate classes?",NA,main,Graduated High-school,159101,1672240286434,1672240127333,female,gym-boxing,English,41168,gymActivities,1,main
4710,47,I'm so sorry we don't serve iced tea. I can recommend our iced coffee though.,NA,main,Graduated High-school,159101,1672240286434,1672240127333,female,bar-tea,English,34187,bar,2,main
4710,47,"No, how about an oil painting?",NA,main,Graduated High-school,159101,1672240286434,1672240127333,female,interior-deco,English,21264,interior,3,main
4710,47,teacher,NA,teacher,Graduated High-school,159101,1672240286434,1672240127333,female,jobCenter-engineer,English,12556,jobCenter,4,filler
4710,47,We don't but we have some great mystery and adventure novels.,NA,main,Graduated High-school,159101,1672240286434,1672240127333,female,books-fantasy,English,17913,books,5,main
4640,62,"No sir but we do rent the same family of boats, our version is the kayak",NA,main,Graduated High-school,444611,1672166112109,1672165667498,male,waterSport-muscle,English,84674,waterSport,1,main
4640,62,i have none at the moment however if you want a substitute short term then you can choose between an oil painting and photograph prints,NA,main,Graduated High-school,444611,1672166112109,1672165667498,male,interior-deco,English,127861,interior,2,main
4640,62,sculpture,NA,sculpture,Graduated High-school,444611,1672166112109,1672165667498,male,art-drawing,English,23926,art,3,filler
4640,62,"we have sold out until next weeks new stock arrives, how about a necklace but be quick as they are selling out too.",NA,main,Graduated High-school,444611,1672166112109,1672165667498,male,clothing-acc,English,77716,clothing,4,main
4640,62,not today however i can get you into a hip hop session.,NA,main,Graduated High-school,444611,1672166112109,1672165667498,male,touristInfo-clubbing,English,63969,touristInfo,5,main
4658,63,"Yes, there is. Are you interested in joining?",NA,main,Graduated High-school,303596,1672168787421,1672168483825,male,kidsActivities-sports,English,48344,kidsActivities,1,main
4658,63,sculpture,NA,sculpture,Graduated High-school,303596,1672168787421,1672168483825,male,art-drawing,English,18817,art,2,filler
4658,63,"No, I'm sorry, we are out of stock at the moment.",NA,main,Graduated High-school,303596,1672168787421,1672168483825,male,clothing-acc,English,50505,clothing,3,main
4658,63,"No, not today but we do have a hip hop DJ and live jazz music.",NA,main,Graduated High-school,303596,1672168787421,1672168483825,male,touristInfo-clubbing,English,64828,touristInfo,4,main
4658,63,"No, we don't have any watercolour paintings but we do have oil paintings, if you would like to take a look.",NA,main,Graduated High-school,303596,1672168787421,1672168483825,male,interior-deco,English,64316,interior,5,main
4659,35,"I have an agave plant and some tulips of they're any good for you, you're welcome to have them.",NA,main,Graduated College,344579,1672168821108,1672168476529,female,interior-green,English,66433,interior,1,main
4659,35,Sculpture,NA,sculpture,Graduated College,344579,1672168821108,1672168476529,female,art-painting,English,27247,art,2,filler
4659,35,We have raspberry pie which is lovely,NA,main,Graduated College,344579,1672168821108,1672168476529,female,cafe-pie,English,22059,cafe,3,main
4659,35,We have a macbook air and a desktop computer,NA,main,Graduated College,344579,1672168821108,1672168476529,female,electronics-laptop,English,22756,electronics,4,main
4659,35,We have ciggerattes,NA,main,Graduated College,344579,1672168821108,1672168476529,female,dutyFree-smokes,English,16331,dutyFree,5,main
4671,42,"Yes, we have several to choose from",NA,main,Graduated High-school,139008,1672171774501,1672171635493,female,waterSport-motor,English,29735,waterSport,1,main
4671,42,"Yes, we have a good choice of love poems",NA,main,Graduated High-school,139008,1672171774501,1672171635493,female,books-romance,English,18595,books,2,main
4671,42,"Sorry, no I don't",NA,main,Graduated High-school,139008,1672171774501,1672171635493,female,interior-green,English,27315,interior,3,main
4671,42,classic,NA,classic,Graduated High-school,139008,1672171774501,1672171635493,female,music-hardrock,English,10487,music,4,filler
4671,42,"No, but we have some great alternatives",NA,main,Graduated High-school,139008,1672171774501,1672171635493,female,kidsActivities-crafts,English,22823,kidsActivities,5,main
4673,32,Sculpture,NA,sculpture,Higher degree,210370,1672171793507,1672171583137,female,art-painting,English,17597,art,1,filler
4673,32,"The options I have for tomorrow are, a budget hotel or a bed and breakfast. Do you want to discuss pricing for those? They could be not much more than a hostel.",NA,main,Higher degree,210370,1672171793507,1672171583137,female,bookingAgency-lowClassAccommodation,English,56848,bookingAgency,2,main
4673,32,"There isn’t today, although there is a circus show. Would this be of interest to you?",NA,main,Higher degree,210370,1672171793507,1672171583137,female,touristInfo-childTheatre,English,29152,touristInfo,3,main
4673,32,We do have a book of French love letters.  Would that interest you?,NA,main,Higher degree,210370,1672171793507,1672171583137,female,books-romance,English,33464,books,4,main
4673,32,We actually have a raspberry pie today instead. Would you like to try it?,NA,main,Higher degree,210370,1672171793507,1672171583137,female,cafe-pie,English,25155,cafe,5,main
4686,51,"yes, we do",none,main,Graduated College,98759,1672237005563,1672236906804,female,waterSport-muscle,english,21832,waterSport,1,main
4686,51,"yes, we do",none,main,Graduated College,98759,1672237005563,1672236906804,female,gym-boxing,english,12934,gymActivities,2,main
4686,51,"sorry, we don't",none,main,Graduated College,98759,1672237005563,1672236906804,female,electronics-console,english,11400,electronics,3,main
4686,51,"sorry, we don't",none,main,Graduated College,98759,1672237005563,1672236906804,female,kidsActivities-sports,english,13033,kidsActivities,4,main
4686,51,motorcycle,none,motorcycle,Graduated College,98759,1672237005563,1672236906804,female,carRental-moving,english,11132,carRental,5,filler
4692,20,"Sorry, I don't think there are any chameleons! We can go to the igaunas if you want instead?",NA,main,Graduated High-school,194401,1672237099998,1672236905597,other,zoo-reptiles,English,41057,zoo,1,main
4692,20,"We don't sorry, but we do have gerbils that you might be interested in?",NA,main,Graduated High-school,194401,1672237099998,1672236905597,other,petAdoption-hamster,English,30662,petAdoption,2,main
4692,20,"We don't sorry, but we do have kickboxing instead if that's something you're interested in.",NA,main,Graduated High-school,194401,1672237099998,1672236905597,other,gym-boxing,English,30053,gymActivities,3,main
4692,20,London,NA,London,Graduated High-school,194401,1672237099998,1672236905597,other,airport-europe-UPDATED,English,11320,airport,4,filler
4692,20,"There isn't, sorry, however we do have a room in a bed-and-breakfast, a suite in a four-star hotel and an apartment that's close to the city.",NA,main,Graduated High-school,194401,1672237099998,1672236905597,other,bookingAgency-highClassAccommodation,English,53010,bookingAgency,5,main
4648,31,There are no chameleons here but let's see the amazing turtles and iguanas.,NA,main,Higher degree,175066,1672168658394,1672168483328,male,zoo-reptiles,"English, Polish",42026,zoo,1,main
4648,31,I am afraid we do not have iced tea. We do have iced coffee.,NA,main,Higher degree,175066,1672168658394,1672168483328,male,bar-tea,"English, Polish",27949,bar,2,main
4648,31,"No, we have a hip-hop night and later performance by a live jazz band.",NA,main,Higher degree,175066,1672168658394,1672168483328,male,touristInfo-clubbing,"English, Polish",32296,touristInfo,3,main
4648,31,"We have kayaks only, if that's ok?",NA,main,Higher degree,175066,1672168658394,1672168483328,male,waterSport-muscle,"English, Polish",37293,waterSport,4,main
4648,31,teacher,NA,teacher,Higher degree,175066,1672168658394,1672168483328,male,jobCenter-engineer,"English, Polish",18966,jobCenter,5,filler
4650,47,"No, sorry we don't have that today.",NA,main,Higher degree,202445,1672168673782,1672168471337,female,cafe-pizza,English,32586,cafe,1,main
4650,47,motorcycle,NA,motorcycle,Higher degree,202445,1672168673782,1672168471337,female,carRental-moving,English,19291,carRental,2,filler
4650,47,"No, but I do have an oil painting you could have.",NA,main,Higher degree,202445,1672168673782,1672168471337,female,interior-deco,English,36170,interior,3,main
4650,47,"No, how about we watch a movie instead?",NA,main,Higher degree,202445,1672168673782,1672168471337,female,friendsActivities-videoEntertainment,English,30243,friendsActivities,4,main
4650,47,"No, we do kickboxing if that is of interest?",NA,main,Higher degree,202445,1672168673782,1672168471337,female,gym-boxing,English,33765,gymActivities,5,main
4685,27,Sculpture,NA,sculpture,Graduated College,95714,1672237002197,1672236906483,male,art-drawing,English,15774,art,1,filler
4685,27,"No, but we do have gingerbread.",NA,main,Graduated College,95714,1672237002197,1672236906483,male,dutyFree-sweets,English,13701,dutyFree,2,main
4685,27,"We have gerbils, if you prefer?",NA,main,Graduated College,95714,1672237002197,1672236906483,male,petAdoption-hamster,English,14562,petAdoption,3,main
4685,27,"No, how about an Xbox?",NA,main,Graduated College,95714,1672237002197,1672236906483,male,electronics-console,English,11022,electronics,4,main
4685,27,"Kayaks, pedal boats and water ski equipment, but no canoes.",NA,main,Graduated College,95714,1672237002197,1672236906483,male,waterSport-muscle,English,19997,waterSport,5,main
4690,50,"I don't, but I do have a morning flight to Barcelona with connections to other airports.",NA,London,Graduated College,183296,1672237089401,1672236906105,male,airport-europe-UPDATED,English,42250,airport,1,filler
4690,50,"I'm afraid not, only iced coffee.",NA,main,Graduated College,183296,1672237089401,1672236906105,male,bar-tea,English,16200,bar,2,main
4690,50,Not at the moment. We do offer kickboxing classes though if that might interest you?,NA,main,Graduated College,183296,1672237089401,1672236906105,male,gym-boxing,English,26939,gymActivities,3,main
4690,50,"No, I'm afraid not.",NA,main,Graduated College,183296,1672237089401,1672236906105,male,clothing-acc,English,15587,clothing,4,main
4690,50,I'm afraid not. I can offer you a suite in a four-star hotel though.,NA,main,Graduated College,183296,1672237089401,1672236906105,male,bookingAgency-highClassAccommodation,English,37717,bookingAgency,5,main
4708,36,"No, but we have gerbils.",NA,main,Graduated High-school,145436,1672240271362,1672240125926,male,petAdoption-hamster,English,23376,petAdoption,1,main
4708,36,"No, but I can make you one.",NA,main,Graduated High-school,145436,1672240271362,1672240125926,male,interior-deco,English,23864,interior,2,main
4708,36,"No, but how about a suite in a four star hotel?",NA,main,Graduated High-school,145436,1672240271362,1672240125926,male,bookingAgency-highClassAccommodation,English,28576,bookingAgency,3,main
4708,36,"No, we have karate and kickboxing though.",NA,main,Graduated High-school,145436,1672240271362,1672240125926,male,gym-boxing,English,21759,gymActivities,4,main
4708,36,motorcycle,NA,motorcycle,Graduated High-school,145436,1672240271362,1672240125926,male,carRental-moving,English,12552,carRental,5,filler
4709,24,sculpture,NA,sculpture,Graduated High-school,156644,1672240277181,1672240120537,male,art-drawing,NA,19065,art,1,filler
4709,24,"Unfortunately not, but we do have gingerbread available.",NA,main,Graduated High-school,156644,1672240277181,1672240120537,male,dutyFree-sweets,NA,35238,dutyFree,2,main
4709,24,"We don't have any hamsters, sadly. However, we do have gerbils if that is okay?",NA,main,Graduated High-school,156644,1672240277181,1672240120537,male,petAdoption-hamster,NA,27612,petAdoption,3,main
4709,24,"We don't have any psychological thrillers in at the moment, but we have some adventure novels as well as mystery novels that you might like.",NA,main,Graduated High-school,156644,1672240277181,1672240120537,male,books-fantasy,NA,32395,books,4,main
4709,24,We don't offer boxing classes but we do offer kickboxing classes.,NA,main,Graduated High-school,156644,1672240277181,1672240120537,male,gym-boxing,NA,22418,gymActivities,5,main
4724,43,"I’m sorry, we don’t stock those at present.",NA,main,Graduated College,238749,1672240365099,1672240126350,female,clothing-acc,English,48175,clothing,1,main
4724,43,"Sorry, we don’t have iced tea, but we do serve a refreshing iced coffee.",NA,main,Graduated College,238749,1672240365099,1672240126350,female,bar-tea,English,44089,bar,2,main
4724,43,teacher,NA,teacher,Graduated College,238749,1672240365099,1672240126350,female,jobCenter-engineer,English,20290,jobCenter,3,filler
4724,43,"Sorry, no veggie pizza today but there is cheese pizza.",NA,main,Graduated College,238749,1672240365099,1672240126350,female,cafe-pizza,English,34823,cafe,4,main
4724,43,"No, there is no Netflix but there’s plenty of other options for entertainment.",NA,main,Graduated College,238749,1672240365099,1672240126350,female,friendsActivities-videoEntertainment,English,50687,friendsActivities,5,main
4655,38,"No I’m afraid we do not sell those on board.
Would you like anything else?
",NA,main,Higher degree,281556,1672168763309,1672168481753,female,dutyFree-smokes,English,52872,dutyFree,1,main
4655,38,No but I have this agave instead- would you like that?,NA,main,Higher degree,281556,1672168763309,1672168481753,female,interior-green,English,42572,interior,2,main
4655,38,"No, the closest we offer is Pilates- you should give it a try",NA,main,Higher degree,281556,1672168763309,1672168481753,female,gym-yoga,English,37165,gymActivities,3,main
4655,38,"No, we only have the MacBook Air at the moment.",NA,main,Higher degree,281556,1672168763309,1672168481753,female,electronics-laptop,English,34924,electronics,4,main
4655,38,Not at the moment- I’m working on a sculpture for now but may do an acrylic after,NA,sculpture,Higher degree,281556,1672168763309,1672168481753,female,art-painting,English,58079,art,5,filler
4656,62,"No, but I do have some books of French love letters",NA,main,Graduated High-school,305912,1672168784565,1672168478653,female,books-romance,english,44961,books,1,main
4656,62,I'm not sure that there is a tiger in this zoo. But there is definitely a lion that we can go to see,NA,main,Graduated High-school,305912,1672168784565,1672168478653,female,zoo-xl,english,67440,zoo,2,main
4656,62,London,NA,London,Graduated High-school,305912,1672168784565,1672168478653,female,airport-usa,english,14983,airport,3,filler
4656,62,"No, we don't have scrabble, but we do have monopoly, and there's also checkers and some movie we can watch",NA,main,Graduated High-school,305912,1672168784565,1672168478653,female,friendsActivities-boardGames,english,58977,friendsActivities,4,main
4656,62,Unfortunately we don't have a pottery class. But maybe you would like a painting class. Or there'd also carpentry or acrobatics classes.,NA,main,Graduated High-school,305912,1672168784565,1672168478653,female,kidsActivities-crafts,english,77248,kidsActivities,5,main
4665,27,"We do not have a Playstation, sorry.",NA,main,Graduated High-school,92698,1672171677659,1672171584961,male,electronics-console,English,16176,electronics,1,main
4665,27,teacher,NA,teacher,Graduated High-school,92698,1672171677659,1672171584961,male,jobCenter-engineer,English,7160,jobCenter,2,filler
4665,27,"I don't have watercolour paintings, I'm afraid.",NA,main,Graduated High-school,92698,1672171677659,1672171584961,male,interior-deco,English,20306,interior,3,main
4665,27,"There is no club event with electronic music today, only hip hop",NA,main,Graduated High-school,92698,1672171677659,1672171584961,male,touristInfo-clubbing,English,22740,touristInfo,4,main
4665,27,"I do not have Netflix, sorry.",NA,main,Graduated High-school,92698,1672171677659,1672171584961,male,friendsActivities-videoEntertainment,English,14234,friendsActivities,5,main
4672,33,We have some mystery books that could also be considered thrillers.,NA,main,NA,215988,1672171791741,1672171575753,female,books-fantasy,English,50330,books,1,main
4672,33,"No, I'm sorry but the only painting I have at the moment is an oil painting.",NA,main,NA,215988,1672171791741,1672171575753,female,interior-deco,English,46931,interior,2,main
4672,33,Unfortunately not - the most similar item we have is a kayak.,NA,main,NA,215988,1672171791741,1672171575753,female,waterSport-muscle,English,38640,waterSport,3,main
4672,33,"No, but there's a selection of movies if you want to choose one.",NA,main,NA,215988,1672171791741,1672171575753,female,friendsActivities-videoEntertainment,English,24269,friendsActivities,4,main
4672,33,London,NA,London,NA,215988,1672171791741,1672171575753,female,airport-europe-UPDATED,English,17892,airport,5,filler
4674,25,"We have books with french love letters, would you be interested in those?",NA,main,Graduated High-school,218125,1672171823718,1672171605593,female,books-romance,English,30133,books,1,main
4674,25,"
London",NA,London,Graduated High-school,218125,1672171823718,1672171605593,female,airport-usa,English,12661,airport,2,filler
4674,25,We unfortnatly don't but do have golden retrievers that are similar in energy level and size.,NA,main,Graduated High-school,218125,1672171823718,1672171605593,female,petAdoption-dogs,English,42769,petAdoption,3,main
4674,25,We don't but would you be interested in any cigarettes?,NA,main,Graduated High-school,218125,1672171823718,1672171605593,female,dutyFree-smokes,English,18626,dutyFree,4,main
4674,25,Would an agave plant or tulips but something you'd like instead since I currently have no aloe vera plants?,NA,main,Graduated High-school,218125,1672171823718,1672171605593,female,interior-green,English,39083,interior,5,main
4678,51,"chameleon is probably near to iguanas, let's go and have a look.",all great.,main,Graduated College,366214,1672171954080,1672171587866,female,zoo-reptiles,"English, Estonian",74800,zoo,1,main
4678,51,London,all great.,London,Graduated College,366214,1672171954080,1672171587866,female,airport-europe-UPDATED,"English, Estonian",36633,airport,2,filler
4678,51,"hello, we do have kayaks if you are interested.",all great.,main,Graduated College,366214,1672171954080,1672171587866,female,waterSport-muscle,"English, Estonian",74683,waterSport,3,main
4678,51,"hello, we do offer kickboxing classes, are you interested about it?",all great.,main,Graduated College,366214,1672171954080,1672171587866,female,gym-boxing,"English, Estonian",44816,gymActivities,4,main
4678,51,"Netflix is boring, let's play some games guys",all great.,main,Graduated College,366214,1672171954080,1672171587866,female,friendsActivities-videoEntertainment,"English, Estonian",39383,friendsActivities,5,main
4680,56,"Yes we do. We have a lovely 5 star hotel
In centre if you’re interested. Also if you looking for something cheaper we have a cheap b and b . Let me know your budget",NA,main,Graduated High-school,408270,1672171995137,1672171586867,female,bookingAgency-highClassAccommodation,English,210073,bookingAgency,1,main
4680,56,We don’t generally have iced tea but I’ll see what I can do for you,NA,main,Graduated High-school,408270,1672171995137,1672171586867,female,bar-tea,English,33926,bar,2,main
4680,56,Yes I have some paintings. Also if interested I have plant as well to make your house look homely,NA,main,Graduated High-school,408270,1672171995137,1672171586867,female,interior-deco,English,63033,interior,3,main
4680,56,‘sculpture’,NA,sculpture,Graduated High-school,408270,1672171995137,1672171586867,female,art-drawing,English,34504,art,4,filler
4680,56,I’m sorry I havnt but I do have some necklaces if your interested,NA,main,Graduated High-school,408270,1672171995137,1672171586867,female,clothing-acc,English,31384,clothing,5,main
4662,22,"I don't have any watercolours but if you're looking for something nice to fill up a wall, you could take a look at this oil painting. Oh, and I've got some printed photographs too.",NA,main,Higher degree,445193,1672168924340,1672168479147,male,interior-deco,English,117298,interior,1,main
4662,22,I'm sorry we don't have cookies. Would you like to purchase some duty-free granola bars or gingerbread instead? We've also got cigarettes on sale if you'd like.,NA,main,Higher degree,445193,1672168924340,1672168479147,male,dutyFree-sweets,English,119539,dutyFree,2,main
4662,22,"Hi, sorry we don't have those in stock at the moment. Though if you're interested, we've got some mystery novels, adventure novels and books of French love letters.",NA,main,Higher degree,445193,1672168924340,1672168479147,male,books-fantasy,English,88755,books,3,main
4662,22,London,NA,London,Higher degree,445193,1672168924340,1672168479147,male,airport-europe-UPDATED,English,15155,airport,4,filler
4662,22,"Sorry ma'am, we only serve soda, Chardonnay and iced coffee here. Would you like some?",NA,main,Higher degree,445193,1672168924340,1672168479147,male,bar-tea,English,60138,bar,5,main
4687,49,"No, we don't have any hamsters, but we do have ferrets, gerbils and golden retrievers",NA,main,Higher degree,122269,1672237019869,1672236897600,male,petAdoption-hamster,Englisj,31238,petAdoption,1,main
4687,49,We offer kayaks which are very similar to canoes - as well as water ski equipment and pedal boats,NA,main,Higher degree,122269,1672237019869,1672236897600,male,waterSport-muscle,Englisj,34002,waterSport,2,main
4687,49,sculture,NA,sculpture,Higher degree,122269,1672237019869,1672236897600,male,art-drawing,Englisj,9784,art,3,filler
4687,49,"No, but we have granola bards and gingerbread on offer",NA,main,Higher degree,122269,1672237019869,1672236897600,male,dutyFree-sweets,Englisj,19179,dutyFree,4,main
4687,49,We've got  cheese pizza if that works for you,NA,main,Higher degree,122269,1672237019869,1672236897600,male,cafe-pizza,Englisj,14346,cafe,5,main
4693,32,"No I don't, but I do have an agave plant or some tulips you are welcome to if you would like those?",NA,main,Higher degree,195676,1672237105338,1672236909662,female,interior-green,English,62272,interior,1,main
4693,32,No sorry but I have a MacBook Air or a desktop computer if you are interested in those?,NA,main,Higher degree,195676,1672237105338,1672236909662,female,electronics-laptop,English,35241,electronics,2,main
4693,32,No we do not have any I'm afraid.,NA,main,Higher degree,195676,1672237105338,1672236909662,female,clothing-clothes,English,18134,clothing,3,main
4693,32,No sorry. I do have some cigarettes if you are interested in those instead?,NA,main,Higher degree,195676,1672237105338,1672236909662,female,dutyFree-smokes,English,31896,dutyFree,4,main
4693,32,motorcycle,NA,motorcycle,Higher degree,195676,1672237105338,1672236909662,female,carRental-fun,English,12016,carRental,5,filler
4704,51,"I don't think we have books on love poems, but we do have books of French love letters.",NA,main,Graduated High-school,239915,1672238949713,1672238709798,female,books-romance,English,69952,books,1,main
4704,51,"I'm sorry, we don't have any dalmations currently, but we do have chihuahuas and golden retrievers.",NA,main,Graduated High-school,239915,1672238949713,1672238709798,female,petAdoption-dogs,English,41199,petAdoption,2,main
4704,51,"I'm sorry, the only clothing we have in stock right now is shorts and sweatshirts.",NA,main,Graduated High-school,239915,1672238949713,1672238709798,female,clothing-clothes,English,32450,clothing,3,main
4704,51,"Sorry, the only board games I have are checkers and Monopoly.",NA,main,Graduated High-school,239915,1672238949713,1672238709798,female,friendsActivities-boardGames,English,36701,friendsActivities,4,main
4704,51,motorcycle,NA,motorcycle,Graduated High-school,239915,1672238949713,1672238709798,female,carRental-fun,English,12216,carRental,5,filler
4713,26,"Unfortunately there are no five-star hotels available for a single room, but we have a great option for a suite in a four-star hotel.",NA,main,Graduated High-school,190952,1672240314740,1672240123788,male,bookingAgency-highClassAccommodation,English,64765,bookingAgency,1,main
4713,26,classic,NA,classic,Graduated High-school,190952,1672240314740,1672240123788,male,music-softrock,English,11018,music,2,filler
4713,26,"I do not have netflix, but we can play some Xbox games and Monopoly. I also have some movies available for us to watch without needing Netflix.",NA,main,Graduated High-school,190952,1672240314740,1672240123788,male,friendsActivities-videoEntertainment,English,48001,friendsActivities,3,main
4713,26,"We do not have earrings, we only have necklaces, sunglasses, and shorts in stock.",NA,main,Graduated High-school,190952,1672240314740,1672240123788,male,clothing-acc,English,18382,clothing,4,main
4713,26,"We do not have a PlayStation in stock, however we do have an Xbox that works almost the same as a PlayStation.",NA,main,Graduated High-school,190952,1672240314740,1672240123788,male,electronics-console,English,36975,electronics,5,main
4728,46,classic,NA,classic,Higher degree,272615,1672240412216,1672240139601,female,music-softrock,english,39505,music,1,filler
4728,46,"no, sorry just sunglasses, shorts and necklaces",NA,main,Higher degree,272615,1672240412216,1672240139601,female,clothing-acc,english,55349,clothing,2,main
4728,46,"no, sorry",NA,main,Higher degree,272615,1672240412216,1672240139601,female,petAdoption-hamster,english,23322,petAdoption,3,main
4728,46,we have gingerbread and granola bars!,NA,main,Higher degree,272615,1672240412216,1672240139601,female,dutyFree-sweets,english,34984,dutyFree,4,main
4728,46,"sorry, just iced coffee, would you like some water?",NA,main,Higher degree,272615,1672240412216,1672240139601,female,bar-tea,english,39195,bar,5,main
4744,50,"Unfortunately we don't. However, we do offer kickboxing classes which focused on kicking and punching if you'd like to consider.",NA,main,Graduated College,679177,1672240884035,1672240204858,female,gym-boxing,English,236131,gymActivities,1,main
4744,50,"Unfortunately we don't have them on shelf at the moment, however, I'd be happy to order some for you if you're interested.",NA,main,Graduated College,679177,1672240884035,1672240204858,female,books-fantasy,English,118834,books,2,main
4744,50,"No, we don't at the moment. W",NA,main,Graduated College,679177,1672240884035,1672240204858,female,waterSport-muscle,English,56680,waterSport,3,main
4744,50,No. We have other interesting classes if you'd like to try.,NA,main,Graduated College,679177,1672240884035,1672240204858,female,kidsActivities-sports,English,170711,kidsActivities,4,main
4744,50,London,NA,London,Graduated College,679177,1672240884035,1672240204858,female,airport-europe-UPDATED,English,31080,airport,5,filler
4666,25,London,NA,London,Graduated College,114802,1672171693907,1672171579105,female,airport-europe-UPDATED,English,11208,airport,1,filler
4666,25,"No I don't, but I have lots of movies at hand here",NA,main,Graduated College,114802,1672171693907,1672171579105,female,friendsActivities-videoEntertainment,English,19320,friendsActivities,2,main
4666,25,"No, but we have ferrets and gerbils",NA,main,Graduated College,114802,1672171693907,1672171579105,female,petAdoption-hamster,English,16184,petAdoption,3,main
4666,25,"No, we do not. But we have granola bars and gingerbread",NA,main,Graduated College,114802,1672171693907,1672171579105,female,dutyFree-sweets,English,20135,dutyFree,4,main
4666,25,"Yes, we can look at the reptile area",NA,main,Graduated College,114802,1672171693907,1672171579105,female,zoo-reptiles,English,32468,zoo,5,main
4705,43,"yes
",NA,main,Higher degree,111027,1672240230346,1672240119319,female,books-fantasy,English,19948,books,1,main
4705,43,sculpture,NA,sculpture,Higher degree,111027,1672240230346,1672240119319,female,art-drawing,English,17354,art,2,filler
4705,43,"no

",NA,main,Higher degree,111027,1672240230346,1672240119319,female,zoo-reptiles,English,14330,zoo,3,main
4705,43,"no 
",NA,main,Higher degree,111027,1672240230346,1672240119319,female,petAdoption-hamster,English,9276,petAdoption,4,main
4705,43,"no 
",NA,main,Higher degree,111027,1672240230346,1672240119319,female,friendsActivities-videoEntertainment,English,10316,friendsActivities,5,main
4723,32,"We don't have any in stock right now I'm afraid, but we do have this mystery novel that you might be interested in",n/a,main,Graduated College,235583,1672240357967,1672240122384,female,books-fantasy,English,38085,books,1,main
4723,32,motorcycle,n/a,motorcycle,Graduated College,235583,1672240357967,1672240122384,female,carRental-moving,English,11152,carRental,2,filler
4723,32,"We don't right now, but if it's jewellery you're after then our necklace section is just over here",n/a,main,Graduated College,235583,1672240357967,1672240122384,female,clothing-acc,English,46891,clothing,3,main
4723,32,"We don't, would you be interested in an Xbox?",n/a,main,Graduated College,235583,1672240357967,1672240122384,female,electronics-console,English,55890,electronics,4,main
4723,32,I've got some movies lined up for us to check out,n/a,main,Graduated College,235583,1672240357967,1672240122384,female,friendsActivities-videoEntertainment,English,44331,friendsActivities,5,main
4726,53,"I'm sorry, we don't but we serve iced coffee",NA,main,Graduated College,245193,1672240385441,1672240140248,male,bar-tea,English,40515,bar,1,main
4726,53,teacher,NA,teacher,Graduated College,245193,1672240385441,1672240140248,male,jobCenter-engineer,English,20848,jobCenter,2,filler
4726,53,We dell gingerbread or granola bars.,NA,main,Graduated College,245193,1672240385441,1672240140248,male,dutyFree-sweets,English,33831,dutyFree,3,main
4726,53,"No, sorry but we offer Karate or kickboxing classes.",NA,main,Graduated College,245193,1672240385441,1672240140248,male,gym-boxing,English,50047,gymActivities,4,main
4726,53,"No, but I have movies lined up for us to choose from.",NA,main,Graduated College,245193,1672240385441,1672240140248,male,friendsActivities-videoEntertainment,English,35490,friendsActivities,5,main
4731,51,classic,NA,classic,Graduated High-school,312396,1672240431558,1672240119162,female,music-softrock,English,11768,music,1,filler
4731,51,There is a club event but it is playing hip hop music should this be of interest to you.,NA,main,Graduated High-school,312396,1672240431558,1672240119162,female,touristInfo-clubbing,English,62137,touristInfo,2,main
4731,51,No not a gymnastics class but there is an acrobatics class which could be fun!  But also a karate class if you would like to try something new and active.,NA,main,Graduated High-school,312396,1672240431558,1672240119162,female,kidsActivities-sports,English,94333,kidsActivities,3,main
4731,51,No not today.  May I interest you in an iced coffee?,NA,main,Graduated High-school,312396,1672240431558,1672240119162,female,bar-tea,English,27672,bar,4,main
4731,51,I don't at the moment.  But if you would like an oil painting or perhaps some photographic prints I can help you out.,NA,main,Graduated High-school,312396,1672240431558,1672240119162,female,interior-deco,English,49376,interior,5,main
4741,63,Sure we have scrabble. Lets see who prefers to to Monopoly.,All worked fine,main,Graduated High-school,462786,1672240717892,1672240255106,male,friendsActivities-boardGames,English,50083,friendsActivities,1,main
4741,63,"Sorry, but we are sold out of cigars at the moment. I can arrange for some to be available when we land tho if you tell me which ones you are interested in.",All worked fine,main,Graduated High-school,462786,1672240717892,1672240255106,male,dutyFree-smokes,English,114856,dutyFree,2,main
4741,63,"I'm sorry we don't offer Yoga currently, but our pilates classes are very popular as it is seen as the next big thing. Are you interested in the social or technical aspects?",All worked fine,main,Graduated High-school,462786,1672240717892,1672240255106,male,gym-yoga,English,108372,gymActivities,3,main
4741,63,London,All worked fine,London,Graduated High-school,462786,1672240717892,1672240255106,male,airport-usa,English,20897,airport,4,filler
4741,63,"I'm sorry but we don't have any kilns to give pottery classes at the moment. Have you tried all of watercolour painting, carpentry and acrobatics before and given up on them?",All worked fine,main,Graduated High-school,462786,1672240717892,1672240255106,male,kidsActivities-crafts,English,103228,kidsActivities,5,main
4753,29,"no sorry we do not have any
",NA,main,Graduated College,214327,1672243942307,1672243727980,male,clothing-clothes,English,48372,clothing,1,main
4753,29,London,NA,London,Graduated College,214327,1672243942307,1672243727980,male,airport-usa,English,17953,airport,2,filler
4753,29,No sorry but we have availibility at a budget hotel?,NA,main,Graduated College,214327,1672243942307,1672243727980,male,bookingAgency-lowClassAccommodation,English,62825,bookingAgency,3,main
4753,29,No but there is a circus show happening if you are intrested?,NA,main,Graduated College,214327,1672243942307,1672243727980,male,touristInfo-childTheatre,English,31839,touristInfo,4,main
4753,29,No sorry but we have golden retrievers if you would like to take a look?,NA,main,Graduated College,214327,1672243942307,1672243727980,male,petAdoption-dogs,English,37357,petAdoption,5,main
4667,34,"I don't but we do have monopoly, would that be ok instead?",thanks,main,Did not graduate High-school,150388,1672171729239,1672171578851,female,friendsActivities-boardGames,english,38993,friendsActivities,1,main
4667,34,We do indeed,thanks,main,Did not graduate High-school,150388,1672171729239,1672171578851,female,books-romance,english,14741,books,2,main
4667,34,WE don't sorry about that,thanks,main,Did not graduate High-school,150388,1672171729239,1672171578851,female,dutyFree-smokes,english,25546,dutyFree,3,main
4667,34,I  could offer you raspberry pie instead?,thanks,main,Did not graduate High-school,150388,1672171729239,1672171578851,female,cafe-pie,english,29850,cafe,4,main
4667,34,sculpture,thanks,sculpture,Did not graduate High-school,150388,1672171729239,1672171578851,female,art-painting,english,18378,art,5,filler
4668,31,"Unfortuantely not, however we have acrobatics, which is similar to gymnastics",NA,main,Graduated College,162355,1672171740950,1672171578595,female,kidsActivities-sports,English,34900,kidsActivities,1,main
4668,31,"No playstations sorry, we do have an Xbox which is similar",NA,main,Graduated College,162355,1672171740950,1672171578595,female,electronics-console,English,18157,electronics,2,main
4668,31,"Sorry we don't, we do however have kayaks or pedal boats if you would be interested in renting these",NA,main,Graduated College,162355,1672171740950,1672171578595,female,waterSport-muscle,English,37592,waterSport,3,main
4668,31,teacher,NA,teacher,Graduated College,162355,1672171740950,1672171578595,female,jobCenter-engineer,English,14701,jobCenter,4,filler
4668,31,"No boxing, but we do offer kickboxing or karate",NA,main,Graduated College,162355,1672171740950,1672171578595,female,gym-boxing,English,16329,gymActivities,5,main
4677,33,"no, I'm sorry, that is not available, but we do have a four star hotel option open.",an actual enjoyable survey. thanks! :),main,Graduated College,332258,1672171893603,1672171561345,other,bookingAgency-highClassAccommodation,English,74771,bookingAgency,1,main
4677,33,sculpture,an actual enjoyable survey. thanks! :),sculpture,Graduated College,332258,1672171893603,1672171561345,other,art-drawing,English,20809,art,2,filler
4677,33,"sorry, no. we only have soda, chardonnay, and iced coffee.",an actual enjoyable survey. thanks! :),main,Graduated College,332258,1672171893603,1672171561345,other,bar-tea,English,23401,bar,3,main
4677,33,"We don't, sorry, but we have a gameboy, macbook air, and an xbox if you'd be interested in looking at those.",an actual enjoyable survey. thanks! :),main,Graduated College,332258,1672171893603,1672171561345,other,electronics-console,English,30893,electronics,4,main
4677,33,"I don't, but I do have an oil painting.",an actual enjoyable survey. thanks! :),main,Graduated College,332258,1672171893603,1672171561345,other,interior-deco,English,26030,interior,5,main
4699,58,Yes of course darling however i think its asleep at the moment.,NA,main,Graduated College,369913,1672237275084,1672236905171,female,zoo-reptiles,English,55392,zoo,1,main
4699,58,Sorry we dont but i can offer you a kayak which is very similar.,NA,main,Graduated College,369913,1672237275084,1672236905171,female,waterSport-muscle,English,62735,waterSport,2,main
4699,58,London,NA,London,Graduated College,369913,1672237275084,1672236905171,female,airport-europe-UPDATED,English,18016,airport,3,filler
4699,58,I dont but would let you have a very nice oil painting now or perhaps paint you a watercolour in the next few weeks.,NA,main,Graduated College,369913,1672237275084,1672236905171,female,interior-deco,English,81888,interior,4,main
4699,58,Yes and i was thinking we could watch a movie from it.,NA,main,Graduated College,369913,1672237275084,1672236905171,female,friendsActivities-videoEntertainment,English,81384,friendsActivities,5,main
4716,24,teacher,NA,teacher,Higher degree,204818,1672240331817,1672240126999,female,jobCenter-engineer,english,13382,jobCenter,1,filler
4716,24,there isn’t a gymnastics class as such but there is acrobatics and karate which are similar to gymnastics.,NA,main,Higher degree,204818,1672240331817,1672240126999,female,kidsActivities-sports,english,55380,kidsActivities,2,main
4716,24,we offer kick-boxing classes but not boxing classes unfortunately,NA,main,Higher degree,204818,1672240331817,1672240126999,female,gym-boxing,english,24544,gymActivities,3,main
4716,24,let’s see the other animals first and then we can find the chameleon,NA,main,Higher degree,204818,1672240331817,1672240126999,female,zoo-reptiles,english,37352,zoo,4,main
4716,24,we don’t unfortunately but we have an xbox and gameboy if that interests you?,NA,main,Higher degree,204818,1672240331817,1672240126999,female,electronics-console,english,34585,electronics,5,main
4730,30,We have a luxurious apartment close to the city available or a suite in a 4 star hotel sir.,NA,main,Higher degree,280125,1672240409731,1672240129606,female,bookingAgency-highClassAccommodation,English,105988,bookingAgency,1,main
4730,30,"Unfortunately no we don't, but we do have iced coffee",NA,main,Higher degree,280125,1672240409731,1672240129606,female,bar-tea,English,31791,bar,2,main
4730,30,"I don't have anyy water colour paintings, but I do have an oil painting if you'd like to see it?",NA,main,Higher degree,280125,1672240409731,1672240129606,female,interior-deco,English,48877,interior,3,main
4730,30,"We do rent out a range of different boats, we have Kayaks and pedal boats available to rent",NA,main,Higher degree,280125,1672240409731,1672240129606,female,waterSport-muscle,English,39528,waterSport,4,main
4730,30,sculpture,NA,sculpture,Higher degree,280125,1672240409731,1672240129606,female,art-drawing,English,15731,art,5,filler
4734,40,motorcycle,NA,motorcycle,Higher degree,394492,1672240506248,1672240111756,male,carRental-fun,english,31152,carRental,1,filler
4734,40,"I'm sorry, there are no pottery classes. There's a carpentry workshop you could do instead?",NA,main,Higher degree,394492,1672240506248,1672240111756,male,kidsActivities-crafts,english,78293,kidsActivities,2,main
4734,40,"Sorry, I haven't. I've got other games",NA,main,Higher degree,394492,1672240506248,1672240111756,male,friendsActivities-boardGames,english,35363,friendsActivities,3,main
4734,40,No we don't but we do offer many other classes that might be of interest?,NA,main,Higher degree,394492,1672240506248,1672240111756,male,gym-yoga,english,34676,gymActivities,4,main
4734,40,We don't but we do have a delicious raspberry pie,NA,main,Higher degree,394492,1672240506248,1672240111756,male,cafe-pie,english,25625,cafe,5,main
4675,30,London,NA,London,Graduated High-school,292624,1672171866639,1672171574015,female,airport-usa,English,19768,airport,1,filler
4675,30,No sorry I don't have an aloe vera plant.,NA,main,Graduated High-school,292624,1672171866639,1672171574015,female,interior-green,English,49006,interior,2,main
4675,30,No sorry we only have raspberry pie available.,NA,main,Graduated High-school,292624,1672171866639,1672171574015,female,cafe-pie,English,25668,cafe,3,main
4675,30,No sadly there isn't a pottery class.,NA,main,Graduated High-school,292624,1672171866639,1672171574015,female,kidsActivities-crafts,English,38704,kidsActivities,4,main
4675,30,No unfortunately there isn't a theatre performance for children today.,NA,main,Graduated High-school,292624,1672171866639,1672171574015,female,touristInfo-childTheatre,English,51172,touristInfo,5,main
4682,56,"I’m sorry sir, we only have suits and apartments available at the moment.",Thank you,main,Graduated College,534728,1672172136788,1672171602060,male,bookingAgency-highClassAccommodation,English,141986,bookingAgency,1,main
4682,56,classic,Thank you,classic,Graduated College,534728,1672172136788,1672171602060,male,music-softrock,English,25266,music,2,filler
4682,56,I don’t think they have a chameleon but they’ve got lions! They’re much more exciting!,Thank you,main,Graduated College,534728,1672172136788,1672171602060,male,zoo-reptiles,English,127269,zoo,3,main
4682,56,"I’m sorry we don’t at the moment but, we do have gerbils. They’re similar but easier to look after.",Thank you,main,Graduated College,534728,1672172136788,1672171602060,male,petAdoption-hamster,English,94080,petAdoption,4,main
4682,56,"Yes, of course. Good idea! What shall we watch?",Thank you,main,Graduated College,534728,1672172136788,1672171602060,male,friendsActivities-videoEntertainment,English,57124,friendsActivities,5,main
4689,30,classic,NA,classic,Graduated High-school,173006,1672237066240,1672236893234,female,music-softrock,English,16094,music,1,filler
4689,30,I have movies on Netflix,NA,main,Graduated High-school,173006,1672237066240,1672236893234,female,friendsActivities-videoEntertainment,English,22644,friendsActivities,2,main
4689,30,"No, but there's acrobatics",NA,main,Graduated High-school,173006,1672237066240,1672236893234,female,kidsActivities-sports,English,25197,kidsActivities,3,main
4689,30,"There's no chameleons, let's see iguanas instead",NA,main,Graduated High-school,173006,1672237066240,1672236893234,female,zoo-reptiles,English,56033,zoo,4,main
4689,30,No sorry,NA,main,Graduated High-school,173006,1672237066240,1672236893234,female,touristInfo-clubbing,English,16695,touristInfo,5,main
4694,25,"no, unfortunatley we only have a Macbook Air in stock at the moment",i enjoyed this id like to do more like this,main,Graduated High-school,213829,1672237113708,1672236899879,female,electronics-laptop,English,33920,electronics,1,main
4694,25,no I dont however I do have Monopoly and checkers if we feel like playing games,i enjoyed this id like to do more like this,main,Graduated High-school,213829,1672237113708,1672236899879,female,friendsActivities-boardGames,English,35672,friendsActivities,2,main
4694,25,"We do have a range of water ski equipment, but I will have to double check if we specifically have jet skis avaliable at the moment",i enjoyed this id like to do more like this,main,Graduated High-school,213829,1672237113708,1672236899879,female,waterSport-motor,English,54641,waterSport,3,main
4694,25,classic,i enjoyed this id like to do more like this,classic,Graduated High-school,213829,1672237113708,1672236899879,female,music-hardrock,English,10519,music,4,filler
4694,25,sadly we have no sauvignon blanc in at the moment but we do offer a lovely chardonnay,i enjoyed this id like to do more like this,main,Graduated High-school,213829,1672237113708,1672236899879,female,bar-whiteWine,English,35903,bar,5,main
4695,41,"Unfortunately I don't have Aloe Vera, but I do have an agave plant you might like.",NA,main,Graduated College,250508,1672237158920,1672236908412,male,interior-green,English,36855,interior,1,main
4695,41,"We have books of French love letters, some of these may contain poems. you may find them interesting.",NA,main,Graduated College,250508,1672237158920,1672236908412,male,books-romance,English,31492,books,2,main
4695,41,There is no youth hostel available today unfortauntely. You may find this bed-and-breakfast option suitable?,NA,main,Graduated College,250508,1672237158920,1672236908412,male,bookingAgency-lowClassAccommodation,English,74854,bookingAgency,3,main
4695,41,"There is a circus show today which is suitable for children, but no theatre I'm afraid.",NA,main,Graduated College,250508,1672237158920,1672236908412,male,touristInfo-childTheatre,English,38836,touristInfo,4,main
4695,41,sculpture,NA,sculpture,Graduated College,250508,1672237158920,1672236908412,male,art-painting,English,11576,art,5,filler
4700,36,No but there is a circus show?,NA,main,Graduated College,361322,1672237280621,1672236919299,female,touristInfo-childTheatre,English,79828,touristInfo,1,main
4700,36,motorcycle,NA,motorcycle,Graduated College,361322,1672237280621,1672236919299,female,carRental-fun,English,40449,carRental,2,filler
4700,36,No but we sell cigarettes?,NA,main,Graduated College,361322,1672237280621,1672236919299,female,dutyFree-smokes,English,73846,dutyFree,3,main
4700,36,"Unfortunately not, but we do have Chardonnay?",NA,main,Graduated College,361322,1672237280621,1672236919299,female,bar-whiteWine,English,47885,bar,4,main
4700,36,No but we do have a MacBook Air?,NA,main,Graduated College,361322,1672237280621,1672236919299,female,electronics-laptop,English,54707,electronics,5,main
4701,20,"Sorry we don't currently have any psychological thrillers in stock. If there is a specific book you have in mind I may be able to order one in for you. Alternatively, you may want to look at our range of mystery novels which might be similar to what you are looking for or feel free to peruse our range of adventure novels if you are looking for something different.",NA,main,Graduated High-school,401872,1672237308802,1672236906930,male,books-fantasy,English,160629,books,1,main
4701,20,"We don't currently offer boxing classes, however we do offer kickboxing which is a striking sport that also includes kicks or karate for a more traditional martial art.",NA,main,Graduated High-school,401872,1672237308802,1672236906930,male,gym-boxing,English,81262,gymActivities,2,main
4701,20,We don't currently have any earrings but we do have a selection of necklaces and sunglasses if you are looking for other accessories,NA,main,Graduated High-school,401872,1672237308802,1672236906930,male,clothing-acc,English,42296,clothing,3,main
4701,20,London,NA,London,Graduated High-school,401872,1672237308802,1672236906930,male,airport-europe-UPDATED,English,25692,airport,4,filler
4701,20,We do not have a five star hotel available for tomorrow night but there is a four star suite in a hotel nearby,NA,main,Graduated High-school,401872,1672237308802,1672236906930,male,bookingAgency-highClassAccommodation,English,71084,bookingAgency,5,main
4681,29,"No I don't, but I do have an oil painting",NA,main,Graduated High-school,245085,1672172087584,1672171842499,male,interior-deco,English,107781,interior,1,main
4681,29,We do offer kickboxing classes here.,NA,main,Graduated High-school,245085,1672172087584,1672171842499,male,gym-boxing,English,31248,gymActivities,2,main
4681,29,I do,NA,main,Graduated High-school,245085,1672172087584,1672171842499,male,friendsActivities-videoEntertainment,English,33256,friendsActivities,3,main
4681,29,teacher,NA,teacher,Graduated High-school,245085,1672172087584,1672171842499,male,jobCenter-engineer,English,10033,jobCenter,4,filler
4681,29,"No we don't sorry, we do have an xbox though, would this be ok?",NA,main,Graduated High-school,245085,1672172087584,1672171842499,male,electronics-console,English,39435,electronics,5,main
4684,67,"Currently no but we do have other dogs desperate for a new homme

",none,main,Higher degree,431656,1672172747943,1672172316287,female,petAdoption-dogs,English,81032,petAdoption,1,main
4684,67,Not that precise accommodation but we do have alternatives which are not too expensive,none,main,Higher degree,431656,1672172747943,1672172316287,female,bookingAgency-lowClassAccommodation,English,85391,bookingAgency,2,main
