submission_id,age,comments,correct_response,education,experiment_duration,experiment_end_time,experiment_start_time,gender,languages,responseTime,settingName,trialNr,trial_type,itemName,answer,category,response_option,option_category,new_category
4627,30,,main,Graduated College,169632,1672165773559,1672165603927,male,English,30770,gymActivities,2,main,gym-boxing,Sorry we only offer kickboxing,competitor,kickboxing,competitor,competitor
4647,43,,main,Graduated College,120215,1672168597056,1672168476841,male,English,25696,dutyFree,1,main,dutyFree-smokes,"No, but we sell cigarettes.",competitor,cigarettes,competitor,competitor
4647,43,,main,Graduated College,120215,1672168597056,1672168476841,male,English,22240,kidsActivities,2,main,kidsActivities-crafts,"No, but there's carpentry if you're interested.",competitor,carpentry,competitor,competitor
4647,43,,main,Graduated College,120215,1672168597056,1672168476841,male,English,16424,interior,3,main,interior-green,"No, only agave plant.",competitor,agave,competitor,competitor
4647,43,,main,Graduated College,120215,1672168597056,1672168476841,male,English,18200,touristInfo,5,main,touristInfo-childTheatre,"No, but there is a circus show.",competitor,circus,competitor,competitor
4652,36,,main,Graduated High-school,217810,1672168701395,1672168483585,female,"english, welsh",70989,clothing,1,main,clothing-acc,"sorry, unfortunately we're out of stock at this time. Would you be interested in necklaces instead perhaps?",competitor,necklace,competitor,competitor
4652,36,,main,Graduated High-school,217810,1672168701395,1672168483585,female,"english, welsh",35979,interior,2,main,interior-deco,"only oil, want to take a look?",competitor,oil painting,competitor,competitor
4652,36,,main,Graduated High-school,217810,1672168701395,1672168483585,female,"english, welsh",31522,zoo,5,main,zoo-reptiles,do you mean iguanas?,competitor,iguana,competitor,competitor
4664,51,thanks,main,Higher degree,451527,1672169690783,1672169239256,male,English,97448,books,3,main,books-romance,"""Sorry, I don't have them at the moment, though I do have books of French love letters if you are interested""",competitor,French love letters,competitor,competitor
4615,21,I think just make the  font size a little bit bigger,main,Higher degree,164587,1672164847535,1672164682948,female,English,15526,electronics,3,main,electronics-laptop,No only the Macbook air.,competitor,MacBook Air,competitor,competitor
4631,56,All good!,main,Graduated College,180499,1672165849506,1672165669007,male,English,41232,bar,4,main,bar-tea,"No,sorry, but we do have iced coffee, if you’d like that.",competitor,iced coffee,competitor,competitor
4632,69,,main,Graduated High-school,208141,1672165879722,1672165671581,female,English,29856,petAdoption,3,main,petAdoption-dogs,"No I'm sorry, but we have some lovely golden retrievers if you were interested",competitor,golden retriever,competitor,competitor
4632,69,,main,Graduated High-school,208141,1672165879722,1672165671581,female,English,49439,bar,4,main,bar-whiteWine,"Sorry, but no.  However ,we do have some rather delicious chardonnay",competitor,Chardonnay,competitor,competitor
4632,69,,main,Graduated High-school,208141,1672165879722,1672165671581,female,English,29952,dutyFree,5,main,dutyFree-smokes,"NO, I'm sorry I only have cigarettes.",competitor,cigarettes,competitor,competitor
4607,60,,main,Graduated College,232254,1672163527107,1672163294853,female,English,38855,zoo,3,main,zoo-xl,There aren't any tigers but we could see a lion.,competitor,lion,competitor,competitor
4607,60,,main,Graduated College,232254,1672163527107,1672163294853,female,English,30326,gymActivities,4,main,gym-yoga,No sorry but we can offer pilates.,competitor,pilates,competitor,competitor
4607,60,,main,Graduated College,232254,1672163527107,1672163294853,female,English,61124,interior,5,main,interior-green,No but I do have an agarve plant.,competitor,agave,competitor,competitor
4616,27,,main,Higher degree,132469,1672164859766,1672164727297,female,,25738,electronics,3,main,electronics-laptop,"No sorry, we have the MacBook Air though if that interests you.",competitor,MacBook Air,competitor,competitor
4616,27,,main,Higher degree,132469,1672164859766,1672164727297,female,,21221,cafe,5,main,cafe-pie,"Not a cake, but we have raspberry pie.",competitor,raspberry pie,competitor,competitor
4637,56,,main,Higher degree,293013,1672166014283,1672165721270,male,English,48173,electronics,3,main,electronics-laptop,"No, but i have a macbook air",competitor,MacBook Air,competitor,competitor
4637,56,,main,Higher degree,293013,1672166014283,1672165721270,male,English,41909,books,5,main,books-romance,"No, would french love letters be of any interest?",competitor,French love letters,competitor,competitor
4614,30,,main,Graduated College,142055,1672164834373,1672164692318,male,English,32390,zoo,2,main,zoo-xl,We can go and see the lions which are similar to tigers.,competitor,lion,competitor,competitor
4614,30,,main,Graduated College,142055,1672164834373,1672164692318,male,English,20315,books,5,main,books-romance,"No, but we do have French love letters.",competitor,French love letters,competitor,competitor
4617,24,,main,Graduated College,183518,1672164871173,1672164687655,female,"English, Japanese",25192,gymActivities,1,main,gym-boxing,We have kickboxing classes - would you be interested in that?,competitor,kickboxing,competitor,competitor
4617,24,,main,Graduated College,183518,1672164871173,1672164687655,female,"English, Japanese",34546,friendsActivities,5,main,friendsActivities-videoEntertainment,I haven't got Netflix but I've got some movies we could watch. Take a look and pick out something you like!,competitor,movie,competitor,competitor
4624,22,,main,Higher degree,111973,1672165025747,1672164913774,female,English,19241,dutyFree,3,main,dutyFree-sweets,"We do not sell cookies. However, we do sell gingerbread which may suit you.",competitor,gingerbread,competitor,competitor
4624,22,,main,Higher degree,111973,1672165025747,1672164913774,female,English,26446,zoo,5,main,zoo-reptiles,"I'm sorry honey, there are no chameleons! Would you like to see an iguana instead?",competitor,iguana,competitor,competitor
4645,32,,main,Graduated High-school,114897,1672168586674,1672168471777,male,English,25916,electronics,1,main,electronics-laptop,No I only have a macnook air,competitor,MacBook Air,competitor,competitor
4645,32,,main,Graduated High-school,114897,1672168586674,1672168471777,male,English,17965,cafe,2,main,cafe-pie,No but we do have raspberry pie,competitor,raspberry pie,competitor,competitor
4645,32,,main,Graduated High-school,114897,1672168586674,1672168471777,male,English,27111,waterSport,3,main,waterSport-motor,No but we do have water ski equipment,competitor,water ski equipment,competitor,competitor
4645,32,,main,Graduated High-school,114897,1672168586674,1672168471777,male,English,14229,dutyFree,5,main,dutyFree-smokes,No only cigarettes,competitor,cigarettes,competitor,competitor
4669,32,,main,Graduated College,166429,1672171749381,1672171582952,female,English,36004,books,2,main,books-romance,No. We have a book of french love letters,competitor,French love letters,competitor,competitor
4669,32,,main,Graduated College,166429,1672171749381,1672171582952,female,English,24381,electronics,4,main,electronics-laptop,No. We have a MacBook Air,competitor,MacBook Air,competitor,competitor
4669,32,,main,Graduated College,166429,1672171749381,1672171582952,female,English,35646,interior,5,main,interior-green,"No, I have an agave plant",competitor,agave,competitor,competitor
4676,39,,main,Graduated College,293514,1672171892794,1672171599280,male,English,28662,books,3,main,books-romance,We've got french love letters will that do?,competitor,French love letters,competitor,competitor
4676,39,,main,Graduated College,293514,1672171892794,1672171599280,male,English,40426,zoo,4,main,zoo-xl,"Unfortunately there is no Tiger, but the lions are good!",competitor,lion,competitor,competitor
4619,34,,main,Graduated High-school,208664,1672164898665,1672164690001,female,British,31542,bar,1,main,bar-whiteWine,"No, I have chardonnay",competitor,Chardonnay,competitor,competitor
4619,34,,main,Graduated High-school,208664,1672164898665,1672164690001,female,British,50345,gymActivities,3,main,gym-yoga,"No, but we do offer Pilates",competitor,pilates,competitor,competitor
4619,34,,main,Graduated High-school,208664,1672164898665,1672164690001,female,British,26526,touristInfo,4,main,touristInfo-childTheatre,No but we have a circus performance,competitor,circus,competitor,competitor
4623,55,Just to say good luck,main,Higher degree,312976,1672165009891,1672164696915,male,English,51478,waterSport,3,main,waterSport-muscle,We don't rent canoes but kayaks are similar,competitor,kayak,competitor,competitor
4623,55,Just to say good luck,main,Higher degree,312976,1672165009891,1672164696915,male,English,41312,cafe,4,main,cafe-pizza,"If you accept cheese pizza is vegetarian, then yes we do",competitor,cheese,competitor,competitor
4623,55,Just to say good luck,main,Higher degree,312976,1672165009891,1672164696915,male,English,29874,gymActivities,5,main,gym-boxing,"I'm sorry, we only have kickboxing",competitor,kickboxing,competitor,competitor
4653,45,,main,Graduated High-school,217021,1672168702974,1672168485953,female,English,27015,gymActivities,2,main,gym-boxing,We do a kickboxing class.,competitor,kickboxing,competitor,competitor
4653,45,,main,Graduated High-school,217021,1672168702974,1672168485953,female,English,18761,waterSport,5,main,waterSport-muscle,We have kayaks.,competitor,kayak,competitor,competitor
4605,23,,main,Graduated College,247064,1672163430843,1672163183779,female,English,95905,bookingAgency,2,main,bookingAgency-highClassAccommodation,"No, there are no single rooms in any five-star hotels available. The closest to this is a suite in a four-star hotel.",competitor,four-star hotel,competitor,competitor
4605,23,,main,Graduated College,247064,1672163430843,1672163183779,female,English,45019,cafe,5,main,cafe-pizza,"We have cheese pizza which is vegeterian, however we do not have any pizzas with vegetable toppings.",competitor,cheese,competitor,competitor
4633,40,,main,Graduated College,200187,1672165880913,1672165680726,male,English,24868,gymActivities,4,main,gym-boxing,No but you could try kick-boxing if you like,competitor,kickboxing,competitor,competitor
4633,40,,main,Graduated College,200187,1672165880913,1672165680726,male,English,22212,petAdoption,5,main,petAdoption-hamster,No but we have gerbils if you like,competitor,gerbil,competitor,competitor
4643,60,,main,Graduated College,678649,1672166354788,1672165676139,male,English,110730,kidsActivities,1,main,kidsActivities-sports,We have an acrobatics class which is similar to gymnastics.,competitor,acrobatics,competitor,competitor
4643,60,,main,Graduated College,678649,1672166354788,1672165676139,male,English,148032,interior,4,main,interior-deco,No. I have oil paintings though. Would you like to have a look at them ? I painted them myself.,competitor,oil painting,competitor,competitor
4613,30,,main,Graduated College,112591,1672164823439,1672164710848,female,English,22371,bar,2,main,bar-tea,"I'm sorry we don't, but we do have iced coffee if that's any good for you?",competitor,iced coffee,competitor,competitor
4613,30,,main,Graduated College,112591,1672164823439,1672164710848,female,English,26191,touristInfo,5,main,touristInfo-clubbing,"There is a club event, but it's with hip hop rather than electronic music.",competitor,hip hop DJ,competitor,competitor
4618,29,,main,Graduated College,195248,1672164888791,1672164693543,female,English,36281,interior,3,main,interior-green,No but I have an agave plant,competitor,agave,competitor,competitor
4618,29,,main,Graduated College,195248,1672164888791,1672164693543,female,English,28609,books,4,main,books-romance,No but I have books of French love letters,competitor,French love letters,competitor,competitor
4618,29,,main,Graduated College,195248,1672164888791,1672164693543,female,English,23698,bar,5,main,bar-whiteWine,We only have Chardonnay I’m afraid,competitor,Chardonnay,competitor,competitor
4628,25,,main,Higher degree,150375,1672165832167,1672165681792,female,English,20435,touristInfo,5,main,touristInfo-childTheatre,There is a circus show,competitor,circus,competitor,competitor
4630,36,,main,Graduated College,158740,1672165844403,1672165685663,female,,17245,friendsActivities,1,main,friendsActivities-boardGames,"No, but I do have monopoly!",competitor,Monopoly,competitor,competitor
4630,36,,main,Graduated College,158740,1672165844403,1672165685663,female,,20813,books,2,main,books-romance,"Hmm, not exactly but I have French love letters, would that be any good?",competitor,French love letters,competitor,competitor
4610,30,,main,Higher degree,106785,1672164788994,1672164682209,female,English,10279,petAdoption,4,main,petAdoption-hamster,No but we have gerbils,competitor,gerbil,competitor,competitor
4629,45,,main,Higher degree,166231,1672165840245,1672165674014,female,English,11359,cafe,3,main,cafe-pizza,Yes we have a cheese piazza,competitor,cheese,competitor,competitor
4629,45,,main,Higher degree,166231,1672165840245,1672165674014,female,English,26999,kidsActivities,4,main,kidsActivities-sports,We don't have gymnastics but we do have acrobatics,competitor,acrobatics,competitor,competitor
4634,69,,main,Did not graduate High-school,227212,1672165893433,1672165666221,male,English,38591,petAdoption,5,main,petAdoption-dogs,Sorry the only dog we have available is golden retrievers,competitor,golden retriever,competitor,competitor
4654,53,,main,Higher degree,262809,1672168750445,1672168487636,male,English,94978,interior,1,main,interior-deco,I have a lovely oil painting if you want it.,competitor,oil painting,competitor,competitor
4654,53,,main,Higher degree,262809,1672168750445,1672168487636,male,English,41159,waterSport,4,main,waterSport-muscle,"Oh yes, we have wonderful kayaks",competitor,kayak,competitor,competitor
4657,62,Nothing to add.,main,Graduated College,307308,1672168785168,1672168477860,male,English,78970,touristInfo,1,main,touristInfo-clubbing,"We are hosting a club event with a hip hop DJ, would that be the one you were thinking of?",competitor,hip hop DJ,competitor,competitor
4657,62,Nothing to add.,main,Graduated College,307308,1672168785168,1672168477860,male,English,54506,petAdoption,5,main,petAdoption-hamster,"No, sorry, but we do have gerbils if you're open to another type of small pet.",competitor,gerbil,competitor,competitor
4670,33,,main,Graduated College,170482,1672171760039,1672171589557,male,English,53733,cafe,1,main,cafe-pizza,Our only vegi pizza the cheese pizza,competitor,cheese,competitor,competitor
4611,22,,main,Graduated College,108851,1672164802989,1672164694138,female,English,28643,friendsActivities,4,main,friendsActivities-videoEntertainment,"I have some movies we could watch, but they aren't on Netflix.",competitor,movie,competitor,competitor
4620,28,,main,Higher degree,231683,1672164906357,1672164674674,female,English,64373,petAdoption,1,main,petAdoption-hamster,"Hello, unfortunately we don’t have any hamsters but we do have gerbils, would you like to have a look?",competitor,gerbil,competitor,competitor
4642,68,,main,Did not graduate High-school,506044,1672166176808,1672165670764,male,English,92832,interior,2,main,interior-deco,"No, but have a oil painting you can look at.",competitor,oil painting,competitor,competitor
4642,68,,main,Did not graduate High-school,506044,1672166176808,1672165670764,male,English,133815,friendsActivities,4,main,friendsActivities-videoEntertainment,No do not have Netflix But have some movies we can watch.,competitor,movie,competitor,competitor
4661,70,,main,Graduated High-school,355447,1672168857407,1672168501960,female,English,52104,zoo,2,main,zoo-reptiles,I don’t think they have chameleons but we can have a look at the iguanas.,competitor,iguana,competitor,competitor
4661,70,,main,Graduated High-school,355447,1672168857407,1672168501960,female,English,50799,clothing,3,main,clothing-acc,I’m sorry but we do not stock earrings but have a wide choice of necklaces.,competitor,necklace,competitor,competitor
4663,22,,main,Graduated College,344648,1672169075225,1672168730577,male,english,48418,dutyFree,4,main,dutyFree-smokes,we have cigarettes,competitor,cigarettes,competitor,competitor
4625,40,,main,Graduated College,106425,1672165773127,1672165666702,female,English,19911,clothing,2,main,clothing-clothes,I'm afraid we don't but we do have other shorts.,competitor,shorts,competitor,competitor
4625,40,,main,Graduated College,106425,1672165773127,1672165666702,female,English,21573,interior,5,main,interior-green,ah sorry I don't but I have an agave plant you could have?,competitor,agave,competitor,competitor
4635,39,,main,Graduated High-school,294443,1672165986021,1672165691578,female,English,65512,books,1,main,books-romance,We have books of French love letters that may contain poems.,competitor,French love letters,competitor,competitor
4635,39,,main,Graduated High-school,294443,1672165986021,1672165691578,female,English,45099,zoo,3,main,zoo-xl,"They don't have a tiger, but we can go see the lion.",competitor,lion,competitor,competitor
4636,34,,main,Graduated High-school,327744,1672165996743,1672165668999,male,English,111712,interior,1,main,interior-green,"I don't have an aloe vera plant right now, I do have an agave plant which looks very similar if you want it.",competitor,agave,competitor,competitor
4636,34,,main,Graduated High-school,327744,1672165996743,1672165668999,male,English,76216,petAdoption,2,main,petAdoption-dogs,"We don't have any Dalmatians, if you are looking for a dog of similar size we do have golden retrievers.",competitor,golden retriever,competitor,competitor
4636,34,,main,Graduated High-school,327744,1672165996743,1672165668999,male,English,70191,gymActivities,3,main,gym-yoga,"We currently don't offer yoga classes, pilates classes are very similar if you wish to try it out.",competitor,pilates,competitor,competitor
4636,34,,main,Graduated High-school,327744,1672165996743,1672165668999,male,English,31024,electronics,5,main,electronics-laptop,No but we do have a MacBook Air,competitor,MacBook Air,competitor,competitor
4679,36,,main,Graduated High-school,371599,1672171954719,1672171583120,male,English,88536,gymActivities,3,main,gym-yoga,"I'm really sorry, we don't currently offer yoga, what will do is mention it to our manager as other people have also asked about yoga. In the meantime would you like to try a free plates session?",competitor,pilates,competitor,competitor
4679,36,,main,Graduated High-school,371599,1672171954719,1672171583120,male,English,48993,cafe,5,main,cafe-pie,We don't have any cake today but we have a beautiful raspberry pie that I'd reccomend.,competitor,raspberry pie,competitor,competitor
4683,43,,main,Higher degree,101490,1672172196659,1672172095169,female,english,12035,gymActivities,2,main,gym-boxing,"no, we do kickboxing.",competitor,kickboxing,competitor,competitor
4706,23,,main,Graduated College,119359,1672240253405,1672240134046,male,English,24917,touristInfo,4,main,touristInfo-childTheatre,there is a circus,competitor,circus,competitor,competitor
4638,39,,main,Higher degree,363856,1672166025082,1672165661226,male,English,54111,cafe,5,main,cafe-pizza,We don't have a vegetable pizza today. If you are vegetarian we have a cheese pizza. Is that good for you?,competitor,cheese,competitor,competitor
4641,49,,main,Did not graduate High-school,201162,1672166111327,1672165910165,female,English,27774,cafe,4,main,cafe-pie,No but we do have raspberry pie,competitor,raspberry pie,competitor,competitor
4649,41,,main,Higher degree,190399,1672168663366,1672168472967,male,english,22039,petAdoption,1,main,petAdoption-hamster,no. but we have gerbils,competitor,gerbil,competitor,competitor
4649,41,,main,Higher degree,190399,1672168663366,1672168472967,male,english,15345,zoo,4,main,zoo-reptiles,it's an iguana.,competitor,iguana,competitor,competitor
4649,41,,main,Higher degree,190399,1672168663366,1672168472967,male,english,53304,interior,5,main,interior-deco,no. but I have an oil painting,competitor,oil painting,competitor,competitor
4651,60,,main,Graduated High-school,201156,1672168679852,1672168478696,male,English,51312,cafe,1,main,cafe-pie,"No but we have raspberry pie, would you like that?",competitor,raspberry pie,competitor,competitor
4651,60,,main,Graduated High-school,201156,1672168679852,1672168478696,male,English,30234,dutyFree,2,main,dutyFree-smokes,"No, sorry. Cigarettes though, would you like those instead?",competitor,cigarettes,competitor,competitor
4702,54,,main,Graduated College,432511,1672237346494,1672236913983,male,English,71306,bar,1,main,bar-tea,"No, sorry, we do not, but we do have iced coffee.",competitor,iced coffee,competitor,competitor
4703,44,,main,Graduated College,896341,1672237798872,1672236902531,male,English,52680,kidsActivities,1,main,kidsActivities-sports,There is an acrobatics class which is similar to activities you would do in a gymnastics class.,competitor,acrobatics,competitor,competitor
4710,47,,main,Graduated High-school,159101,1672240286434,1672240127333,female,English,34187,bar,2,main,bar-tea,I'm so sorry we don't serve iced tea. I can recommend our iced coffee though.,competitor,iced coffee,competitor,competitor
4710,47,,main,Graduated High-school,159101,1672240286434,1672240127333,female,English,21264,interior,3,main,interior-deco,"No, how about an oil painting?",competitor,oil painting,competitor,competitor
4640,62,,main,Graduated High-school,444611,1672166112109,1672165667498,male,English,84674,waterSport,1,main,waterSport-muscle,"No sir but we do rent the same family of boats, our version is the kayak",competitor,kayak,competitor,competitor
4640,62,,main,Graduated High-school,444611,1672166112109,1672165667498,male,English,77716,clothing,4,main,clothing-acc,"we have sold out until next weeks new stock arrives, how about a necklace but be quick as they are selling out too.",competitor,necklace,competitor,competitor
4640,62,,main,Graduated High-school,444611,1672166112109,1672165667498,male,English,63969,touristInfo,5,main,touristInfo-clubbing,not today however i can get you into a hip hop session.,competitor,hip hop DJ,competitor,competitor
4658,63,,main,Graduated High-school,303596,1672168787421,1672168483825,male,English,64316,interior,5,main,interior-deco,"No, we don't have any watercolour paintings but we do have oil paintings, if you would like to take a look.",competitor,oil painting,competitor,competitor
4659,35,,main,Graduated College,344579,1672168821108,1672168476529,female,English,22059,cafe,3,main,cafe-pie,We have raspberry pie which is lovely,competitor,raspberry pie,competitor,competitor
4659,35,,main,Graduated College,344579,1672168821108,1672168476529,female,English,16331,dutyFree,5,main,dutyFree-smokes,We have ciggerattes,competitor,cigarettes,competitor,competitor
4673,32,,main,Higher degree,210370,1672171793507,1672171583137,female,English,29152,touristInfo,3,main,touristInfo-childTheatre,"There isn’t today, although there is a circus show. Would this be of interest to you?",competitor,circus,competitor,competitor
4673,32,,main,Higher degree,210370,1672171793507,1672171583137,female,English,33464,books,4,main,books-romance,We do have a book of French love letters.  Would that interest you?,competitor,French love letters,competitor,competitor
4673,32,,main,Higher degree,210370,1672171793507,1672171583137,female,English,25155,cafe,5,main,cafe-pie,We actually have a raspberry pie today instead. Would you like to try it?,competitor,raspberry pie,competitor,competitor
4692,20,,main,Graduated High-school,194401,1672237099998,1672236905597,other,English,41057,zoo,1,main,zoo-reptiles,"Sorry, I don't think there are any chameleons! We can go to the igaunas if you want instead?",competitor,iguana,competitor,competitor
4692,20,,main,Graduated High-school,194401,1672237099998,1672236905597,other,English,30662,petAdoption,2,main,petAdoption-hamster,"We don't sorry, but we do have gerbils that you might be interested in?",competitor,gerbil,competitor,competitor
4692,20,,main,Graduated High-school,194401,1672237099998,1672236905597,other,English,30053,gymActivities,3,main,gym-boxing,"We don't sorry, but we do have kickboxing instead if that's something you're interested in.",competitor,kickboxing,competitor,competitor
4648,31,,main,Higher degree,175066,1672168658394,1672168483328,male,"English, Polish",27949,bar,2,main,bar-tea,I am afraid we do not have iced tea. We do have iced coffee.,competitor,iced coffee,competitor,competitor
4648,31,,main,Higher degree,175066,1672168658394,1672168483328,male,"English, Polish",37293,waterSport,4,main,waterSport-muscle,"We have kayaks only, if that's ok?",competitor,kayak,competitor,competitor
4650,47,,main,Higher degree,202445,1672168673782,1672168471337,female,English,36170,interior,3,main,interior-deco,"No, but I do have an oil painting you could have.",competitor,oil painting,competitor,competitor
4650,47,,main,Higher degree,202445,1672168673782,1672168471337,female,English,30243,friendsActivities,4,main,friendsActivities-videoEntertainment,"No, how about we watch a movie instead?",competitor,movie,competitor,competitor
4650,47,,main,Higher degree,202445,1672168673782,1672168471337,female,English,33765,gymActivities,5,main,gym-boxing,"No, we do kickboxing if that is of interest?",competitor,kickboxing,competitor,competitor
4685,27,,main,Graduated College,95714,1672237002197,1672236906483,male,English,13701,dutyFree,2,main,dutyFree-sweets,"No, but we do have gingerbread.",competitor,gingerbread,competitor,competitor
4685,27,,main,Graduated College,95714,1672237002197,1672236906483,male,English,14562,petAdoption,3,main,petAdoption-hamster,"We have gerbils, if you prefer?",competitor,gerbil,competitor,competitor
4685,27,,main,Graduated College,95714,1672237002197,1672236906483,male,English,11022,electronics,4,main,electronics-console,"No, how about an Xbox?",competitor,Xbox,competitor,competitor
4708,36,,main,Graduated High-school,145436,1672240271362,1672240125926,male,English,23376,petAdoption,1,main,petAdoption-hamster,"No, but we have gerbils.",competitor,gerbil,competitor,competitor
4708,36,,main,Graduated High-school,145436,1672240271362,1672240125926,male,English,28576,bookingAgency,3,main,bookingAgency-highClassAccommodation,"No, but how about a suite in a four star hotel?",competitor,four-star hotel,competitor,competitor
4709,24,,main,Graduated High-school,156644,1672240277181,1672240120537,male,,35238,dutyFree,2,main,dutyFree-sweets,"Unfortunately not, but we do have gingerbread available.",competitor,gingerbread,competitor,competitor
4709,24,,main,Graduated High-school,156644,1672240277181,1672240120537,male,,27612,petAdoption,3,main,petAdoption-hamster,"We don't have any hamsters, sadly. However, we do have gerbils if that is okay?",competitor,gerbil,competitor,competitor
4709,24,,main,Graduated High-school,156644,1672240277181,1672240120537,male,,22418,gymActivities,5,main,gym-boxing,We don't offer boxing classes but we do offer kickboxing classes.,competitor,kickboxing,competitor,competitor
4724,43,,main,Graduated College,238749,1672240365099,1672240126350,female,English,44089,bar,2,main,bar-tea,"Sorry, we don’t have iced tea, but we do serve a refreshing iced coffee.",competitor,iced coffee,competitor,competitor
4724,43,,main,Graduated College,238749,1672240365099,1672240126350,female,English,34823,cafe,4,main,cafe-pizza,"Sorry, no veggie pizza today but there is cheese pizza.",competitor,cheese,competitor,competitor
4655,38,,main,Higher degree,281556,1672168763309,1672168481753,female,English,42572,interior,2,main,interior-green,No but I have this agave instead- would you like that?,competitor,agave,competitor,competitor
4655,38,,main,Higher degree,281556,1672168763309,1672168481753,female,English,37165,gymActivities,3,main,gym-yoga,"No, the closest we offer is Pilates- you should give it a try",competitor,pilates,competitor,competitor
4655,38,,main,Higher degree,281556,1672168763309,1672168481753,female,English,34924,electronics,4,main,electronics-laptop,"No, we only have the MacBook Air at the moment.",competitor,MacBook Air,competitor,competitor
4656,62,,main,Graduated High-school,305912,1672168784565,1672168478653,female,english,44961,books,1,main,books-romance,"No, but I do have some books of French love letters",competitor,French love letters,competitor,competitor
4656,62,,main,Graduated High-school,305912,1672168784565,1672168478653,female,english,67440,zoo,2,main,zoo-xl,I'm not sure that there is a tiger in this zoo. But there is definitely a lion that we can go to see,competitor,lion,competitor,competitor
4665,27,,main,Graduated High-school,92698,1672171677659,1672171584961,male,English,22740,touristInfo,4,main,touristInfo-clubbing,"There is no club event with electronic music today, only hip hop",competitor,hip hop DJ,competitor,competitor
4672,33,,main,,215988,1672171791741,1672171575753,female,English,50330,books,1,main,books-fantasy,We have some mystery books that could also be considered thrillers.,competitor,mystery,competitor,competitor
4672,33,,main,,215988,1672171791741,1672171575753,female,English,46931,interior,2,main,interior-deco,"No, I'm sorry but the only painting I have at the moment is an oil painting.",competitor,oil painting,competitor,competitor
4672,33,,main,,215988,1672171791741,1672171575753,female,English,38640,waterSport,3,main,waterSport-muscle,Unfortunately not - the most similar item we have is a kayak.,competitor,kayak,competitor,competitor
4672,33,,main,,215988,1672171791741,1672171575753,female,English,24269,friendsActivities,4,main,friendsActivities-videoEntertainment,"No, but there's a selection of movies if you want to choose one.",competitor,movie,competitor,competitor
4674,25,,main,Graduated High-school,218125,1672171823718,1672171605593,female,English,30133,books,1,main,books-romance,"We have books with french love letters, would you be interested in those?",competitor,French love letters,competitor,competitor
4674,25,,main,Graduated High-school,218125,1672171823718,1672171605593,female,English,42769,petAdoption,3,main,petAdoption-dogs,We unfortnatly don't but do have golden retrievers that are similar in energy level and size.,competitor,golden retriever,competitor,competitor
4674,25,,main,Graduated High-school,218125,1672171823718,1672171605593,female,English,18626,dutyFree,4,main,dutyFree-smokes,We don't but would you be interested in any cigarettes?,competitor,cigarettes,competitor,competitor
4678,51,all great.,main,Graduated College,366214,1672171954080,1672171587866,female,"English, Estonian",74800,zoo,1,main,zoo-reptiles,"chameleon is probably near to iguanas, let's go and have a look.",competitor,iguana,competitor,competitor
4678,51,all great.,main,Graduated College,366214,1672171954080,1672171587866,female,"English, Estonian",74683,waterSport,3,main,waterSport-muscle,"hello, we do have kayaks if you are interested.",competitor,kayak,competitor,competitor
4678,51,all great.,main,Graduated College,366214,1672171954080,1672171587866,female,"English, Estonian",44816,gymActivities,4,main,gym-boxing,"hello, we do offer kickboxing classes, are you interested about it?",competitor,kickboxing,competitor,competitor
4680,56,,main,Graduated High-school,408270,1672171995137,1672171586867,female,English,31384,clothing,5,main,clothing-acc,I’m sorry I havnt but I do have some necklaces if your interested,competitor,necklace,competitor,competitor
4693,32,,main,Higher degree,195676,1672237105338,1672236909662,female,English,31896,dutyFree,4,main,dutyFree-smokes,No sorry. I do have some cigarettes if you are interested in those instead?,competitor,cigarettes,competitor,competitor
4704,51,,main,Graduated High-school,239915,1672238949713,1672238709798,female,English,69952,books,1,main,books-romance,"I don't think we have books on love poems, but we do have books of French love letters.",competitor,French love letters,competitor,competitor
4713,26,,main,Graduated High-school,190952,1672240314740,1672240123788,male,English,64765,bookingAgency,1,main,bookingAgency-highClassAccommodation,"Unfortunately there are no five-star hotels available for a single room, but we have a great option for a suite in a four-star hotel.",competitor,four-star hotel,competitor,competitor
4713,26,,main,Graduated High-school,190952,1672240314740,1672240123788,male,English,36975,electronics,5,main,electronics-console,"We do not have a PlayStation in stock, however we do have an Xbox that works almost the same as a PlayStation.",competitor,Xbox,competitor,competitor
4728,46,,main,Higher degree,272615,1672240412216,1672240139601,female,english,39195,bar,5,main,bar-tea,"sorry, just iced coffee, would you like some water?",competitor,iced coffee,competitor,competitor
4744,50,,main,Graduated College,679177,1672240884035,1672240204858,female,English,236131,gymActivities,1,main,gym-boxing,"Unfortunately we don't. However, we do offer kickboxing classes which focused on kicking and punching if you'd like to consider.",competitor,kickboxing,competitor,competitor
4666,25,,main,Graduated College,114802,1672171693907,1672171579105,female,English,19320,friendsActivities,2,main,friendsActivities-videoEntertainment,"No I don't, but I have lots of movies at hand here",competitor,movie,competitor,competitor
4723,32,,main,Graduated College,235583,1672240357967,1672240122384,female,English,38085,books,1,main,books-fantasy,"We don't have any in stock right now I'm afraid, but we do have this mystery novel that you might be interested in",competitor,mystery,competitor,competitor
4723,32,,main,Graduated College,235583,1672240357967,1672240122384,female,English,46891,clothing,3,main,clothing-acc,"We don't right now, but if it's jewellery you're after then our necklace section is just over here",competitor,necklace,competitor,competitor
4723,32,,main,Graduated College,235583,1672240357967,1672240122384,female,English,55890,electronics,4,main,electronics-console,"We don't, would you be interested in an Xbox?",competitor,Xbox,competitor,competitor
4723,32,,main,Graduated College,235583,1672240357967,1672240122384,female,English,44331,friendsActivities,5,main,friendsActivities-videoEntertainment,I've got some movies lined up for us to check out,competitor,movie,competitor,competitor
4726,53,,main,Graduated College,245193,1672240385441,1672240140248,male,English,40515,bar,1,main,bar-tea,"I'm sorry, we don't but we serve iced coffee",competitor,iced coffee,competitor,competitor
4726,53,,main,Graduated College,245193,1672240385441,1672240140248,male,English,35490,friendsActivities,5,main,friendsActivities-videoEntertainment,"No, but I have movies lined up for us to choose from.",competitor,movie,competitor,competitor
4731,51,,main,Graduated High-school,312396,1672240431558,1672240119162,female,English,62137,touristInfo,2,main,touristInfo-clubbing,There is a club event but it is playing hip hop music should this be of interest to you.,competitor,hip hop DJ,competitor,competitor
4731,51,,main,Graduated High-school,312396,1672240431558,1672240119162,female,English,27672,bar,4,main,bar-tea,No not today.  May I interest you in an iced coffee?,competitor,iced coffee,competitor,competitor
4741,63,All worked fine,main,Graduated High-school,462786,1672240717892,1672240255106,male,English,50083,friendsActivities,1,main,friendsActivities-boardGames,Sure we have scrabble. Lets see who prefers to to Monopoly.,competitor,Monopoly,competitor,competitor
4741,63,All worked fine,main,Graduated High-school,462786,1672240717892,1672240255106,male,English,108372,gymActivities,3,main,gym-yoga,"I'm sorry we don't offer Yoga currently, but our pilates classes are very popular as it is seen as the next big thing. Are you interested in the social or technical aspects?",competitor,pilates,competitor,competitor
4753,29,,main,Graduated College,214327,1672243942307,1672243727980,male,English,62825,bookingAgency,3,main,bookingAgency-lowClassAccommodation,No sorry but we have availibility at a budget hotel?,competitor,budget hotel,competitor,competitor
4753,29,,main,Graduated College,214327,1672243942307,1672243727980,male,English,31839,touristInfo,4,main,touristInfo-childTheatre,No but there is a circus show happening if you are intrested?,competitor,circus,competitor,competitor
4753,29,,main,Graduated College,214327,1672243942307,1672243727980,male,English,37357,petAdoption,5,main,petAdoption-dogs,No sorry but we have golden retrievers if you would like to take a look?,competitor,golden retriever,competitor,competitor
4667,34,thanks,main,Did not graduate High-school,150388,1672171729239,1672171578851,female,english,38993,friendsActivities,1,main,friendsActivities-boardGames,"I don't but we do have monopoly, would that be ok instead?",competitor,Monopoly,competitor,competitor
4667,34,thanks,main,Did not graduate High-school,150388,1672171729239,1672171578851,female,english,29850,cafe,4,main,cafe-pie,I  could offer you raspberry pie instead?,competitor,raspberry pie,competitor,competitor
4668,31,,main,Graduated College,162355,1672171740950,1672171578595,female,English,34900,kidsActivities,1,main,kidsActivities-sports,"Unfortuantely not, however we have acrobatics, which is similar to gymnastics",competitor,acrobatics,competitor,competitor
4668,31,,main,Graduated College,162355,1672171740950,1672171578595,female,English,18157,electronics,2,main,electronics-console,"No playstations sorry, we do have an Xbox which is similar",competitor,Xbox,competitor,competitor
4677,33,an actual enjoyable survey. thanks! :),main,Graduated College,332258,1672171893603,1672171561345,other,English,74771,bookingAgency,1,main,bookingAgency-highClassAccommodation,"no, I'm sorry, that is not available, but we do have a four star hotel option open.",competitor,four-star hotel,competitor,competitor
4677,33,an actual enjoyable survey. thanks! :),main,Graduated College,332258,1672171893603,1672171561345,other,English,26030,interior,5,main,interior-deco,"I don't, but I do have an oil painting.",competitor,oil painting,competitor,competitor
4699,58,,main,Graduated College,369913,1672237275084,1672236905171,female,English,62735,waterSport,2,main,waterSport-muscle,Sorry we dont but i can offer you a kayak which is very similar.,competitor,kayak,competitor,competitor
4699,58,,main,Graduated College,369913,1672237275084,1672236905171,female,English,81888,interior,4,main,interior-deco,I dont but would let you have a very nice oil painting now or perhaps paint you a watercolour in the next few weeks.,competitor,oil painting,competitor,competitor
4716,24,,main,Higher degree,204818,1672240331817,1672240126999,female,english,24544,gymActivities,3,main,gym-boxing,we offer kick-boxing classes but not boxing classes unfortunately,competitor,kickboxing,competitor,competitor
4730,30,,main,Higher degree,280125,1672240409731,1672240129606,female,English,31791,bar,2,main,bar-tea,"Unfortunately no we don't, but we do have iced coffee",competitor,iced coffee,competitor,competitor
4730,30,,main,Higher degree,280125,1672240409731,1672240129606,female,English,48877,interior,3,main,interior-deco,"I don't have anyy water colour paintings, but I do have an oil painting if you'd like to see it?",competitor,oil painting,competitor,competitor
4734,40,,main,Higher degree,394492,1672240506248,1672240111756,male,english,25625,cafe,5,main,cafe-pie,We don't but we do have a delicious raspberry pie,competitor,raspberry pie,competitor,competitor
4675,30,,main,Graduated High-school,292624,1672171866639,1672171574015,female,English,25668,cafe,3,main,cafe-pie,No sorry we only have raspberry pie available.,competitor,raspberry pie,competitor,competitor
4682,56,Thank you,main,Graduated College,534728,1672172136788,1672171602060,male,English,94080,petAdoption,4,main,petAdoption-hamster,"I’m sorry we don’t at the moment but, we do have gerbils. They’re similar but easier to look after.",competitor,gerbil,competitor,competitor
4689,30,,main,Graduated High-school,173006,1672237066240,1672236893234,female,English,25197,kidsActivities,3,main,kidsActivities-sports,"No, but there's acrobatics",competitor,acrobatics,competitor,competitor
4689,30,,main,Graduated High-school,173006,1672237066240,1672236893234,female,English,56033,zoo,4,main,zoo-reptiles,"There's no chameleons, let's see iguanas instead",competitor,iguana,competitor,competitor
4694,25,i enjoyed this id like to do more like this,main,Graduated High-school,213829,1672237113708,1672236899879,female,English,33920,electronics,1,main,electronics-laptop,"no, unfortunatley we only have a Macbook Air in stock at the moment",competitor,MacBook Air,competitor,competitor
4694,25,i enjoyed this id like to do more like this,main,Graduated High-school,213829,1672237113708,1672236899879,female,English,35903,bar,5,main,bar-whiteWine,sadly we have no sauvignon blanc in at the moment but we do offer a lovely chardonnay,competitor,Chardonnay,competitor,competitor
4695,41,,main,Graduated College,250508,1672237158920,1672236908412,male,English,36855,interior,1,main,interior-green,"Unfortunately I don't have Aloe Vera, but I do have an agave plant you might like.",competitor,agave,competitor,competitor
4695,41,,main,Graduated College,250508,1672237158920,1672236908412,male,English,31492,books,2,main,books-romance,"We have books of French love letters, some of these may contain poems. you may find them interesting.",competitor,French love letters,competitor,competitor
4695,41,,main,Graduated College,250508,1672237158920,1672236908412,male,English,38836,touristInfo,4,main,touristInfo-childTheatre,"There is a circus show today which is suitable for children, but no theatre I'm afraid.",competitor,circus,competitor,competitor
4700,36,,main,Graduated College,361322,1672237280621,1672236919299,female,English,79828,touristInfo,1,main,touristInfo-childTheatre,No but there is a circus show?,competitor,circus,competitor,competitor
4700,36,,main,Graduated College,361322,1672237280621,1672236919299,female,English,73846,dutyFree,3,main,dutyFree-smokes,No but we sell cigarettes?,competitor,cigarettes,competitor,competitor
4700,36,,main,Graduated College,361322,1672237280621,1672236919299,female,English,47885,bar,4,main,bar-whiteWine,"Unfortunately not, but we do have Chardonnay?",competitor,Chardonnay,competitor,competitor
4700,36,,main,Graduated College,361322,1672237280621,1672236919299,female,English,54707,electronics,5,main,electronics-laptop,No but we do have a MacBook Air?,competitor,MacBook Air,competitor,competitor
4701,20,,main,Graduated High-school,401872,1672237308802,1672236906930,male,English,71084,bookingAgency,5,main,bookingAgency-highClassAccommodation,We do not have a five star hotel available for tomorrow night but there is a four star suite in a hotel nearby,competitor,four-star hotel,competitor,competitor
4681,29,,main,Graduated High-school,245085,1672172087584,1672171842499,male,English,107781,interior,1,main,interior-deco,"No I don't, but I do have an oil painting",competitor,oil painting,competitor,competitor
4681,29,,main,Graduated High-school,245085,1672172087584,1672171842499,male,English,31248,gymActivities,2,main,gym-boxing,We do offer kickboxing classes here.,competitor,kickboxing,competitor,competitor
4681,29,,main,Graduated High-school,245085,1672172087584,1672171842499,male,English,39435,electronics,5,main,electronics-console,"No we don't sorry, we do have an xbox though, would this be ok?",competitor,Xbox,competitor,competitor
4684,67,none,main,Higher degree,431656,1672172747943,1672172316287,female,English,61069,interior,3,main,interior-green,No but would you consider an agave?,competitor,agave,competitor,competitor
4688,34,,main,Graduated College,143033,1672237050935,1672236907902,female,English,37264,bookingAgency,2,main,bookingAgency-highClassAccommodation,"No there isn't, sorry, but there is a suite in a four star hotel.",competitor,four-star hotel,competitor,competitor
4707,38,,main,Graduated College,119012,1672240246245,1672240127233,male,,18416,cafe,4,main,cafe-pizza,"Yes, we have cheese pizza.",competitor,cheese,competitor,competitor
4719,34,Nil,main,Higher degree,212503,1672240338178,1672240125675,female,english,32777,cafe,1,main,cafe-pizza,No we don't but you might like to try the cheese pizza?,competitor,cheese,competitor,competitor
4722,76,,main,Graduated College,221967,1672240350422,1672240128455,female,English,39638,bar,1,main,bar-whiteWine,"No sorry, But the Chardonnay is very good",competitor,Chardonnay,competitor,competitor
4722,76,,main,Graduated College,221967,1672240350422,1672240128455,female,English,37625,electronics,2,main,electronics-laptop,We don't but have you considered a MacBook Air instead?,competitor,MacBook Air,competitor,competitor
4722,76,,main,Graduated College,221967,1672240350422,1672240128455,female,English,40644,touristInfo,4,main,touristInfo-childTheatre,Not a theatre performance but they will love the Circus which starts shortly,competitor,circus,competitor,competitor
4725,40,,main,Higher degree,249426,1672240369811,1672240120385,female,english,76706,waterSport,5,main,waterSport-muscle,No we don't have canoes but we do have kayaks which are pretty similar although they are closed boat and have a slightly different padle,competitor,kayak,competitor,competitor
4691,47,,main,Graduated College,186240,1672237092189,1672236905949,male,,31038,cafe,1,main,cafe-pie,We have raspberry pie,competitor,raspberry pie,competitor,competitor
4691,47,,main,Graduated College,186240,1672237092189,1672236905949,male,,39659,electronics,3,main,electronics-laptop,"We have a Macbook Air, will that interest you?",competitor,MacBook Air,competitor,competitor
4729,24,,main,Graduated High-school,264807,1672240412648,1672240147841,male,English,50194,kidsActivities,3,main,kidsActivities-sports,"We don't have a gymnastics class, but we do have an acrobatics class. Would you like to sign up for that?",competitor,acrobatics,competitor,competitor
4729,24,,main,Graduated High-school,264807,1672240412648,1672240147841,male,English,33401,gymActivities,4,main,gym-boxing,"No, but we do offer kickboxing classes. Would you be interested in signing up for the kickboxing classes?",competitor,kickboxing,competitor,competitor
4696,33,,main,Higher degree,264941,1672237175619,1672236910678,female,English,46607,cafe,4,main,cafe-pizza,We do have cheese pizza available.,competitor,cheese,competitor,competitor
4696,33,,main,Higher degree,264941,1672237175619,1672236910678,female,English,69761,clothing,5,main,clothing-acc,"We do not have any earrings in stock at the moment. If you're interested in jewellery though, we do have some necklacke's.",competitor,necklace,competitor,competitor
4697,57,,main,Graduated College,291393,1672237238869,1672236947476,male,English,49641,zoo,3,main,zoo-reptiles,"The chameleon is hiding, let's go and see if he is in with the iguanas",competitor,iguana,competitor,competitor
4697,57,,main,Graduated College,291393,1672237238869,1672236947476,male,English,34658,bar,4,main,bar-tea,"Sorry no iced tea, but our iced coffee is really popular",competitor,iced coffee,competitor,competitor
4698,58,,main,Graduated College,295519,1672237210045,1672236914526,male,english,55752,touristInfo,4,main,touristInfo-clubbing,Well do you class a club event with a hip hop DJ as electronic?,competitor,hip hop DJ,competitor,competitor
4745,32,,main,Higher degree,1448945,1672241577263,1672240128318,male,English,63218,cafe,1,main,cafe-pie,Unfortunately we don't have raspberry cake but we have raspberry pie if you are interested to try.,competitor,raspberry pie,competitor,competitor
4745,32,,main,Higher degree,1448945,1672241577263,1672240128318,male,English,1076593,bar,2,main,bar-whiteWine,Apologies we don't have Sauvignon Blanc but if you like a glass of white wine we have Chardonnay in our bar.,competitor,Chardonnay,competitor,competitor
4745,32,,main,Higher degree,1448945,1672241577263,1672240128318,male,English,88773,touristInfo,5,main,touristInfo-childTheatre,Sorry no theater performance for children today. There is a circus show if you are interested,competitor,circus,competitor,competitor
4766,30,,main,Higher degree,663522,1672244426512,1672243762990,male,English,145001,books,1,main,books-romance,Yes i do. I have books of French love letters written in poems,competitor,French love letters,competitor,competitor
4766,30,,main,Higher degree,663522,1672244426512,1672243762990,male,English,80924,dutyFree,2,main,dutyFree-smokes,"Yes, i sell Cigarettes",competitor,cigarettes,competitor,competitor
4711,38,,main,Graduated College,171437,1672240296548,1672240125111,male,English,25618,friendsActivities,1,main,friendsActivities-boardGames,"No, i have Monopoly though",competitor,Monopoly,competitor,competitor
4711,38,,main,Graduated College,171437,1672240296548,1672240125111,male,English,28266,bar,2,main,bar-whiteWine,"No, our wine choice is Chardonnay",competitor,Chardonnay,competitor,competitor
4712,27,,main,Higher degree,175776,1672240302383,1672240126607,female,English,25459,bar,3,main,bar-tea,No we have iced coffee though.,competitor,iced coffee,competitor,competitor
4712,27,,main,Higher degree,175776,1672240302383,1672240126607,female,English,29509,gymActivities,5,main,gym-boxing,No we have kickboxing classes only.,competitor,kickboxing,competitor,competitor
4717,55,,main,Higher degree,197577,1672240332052,1672240134475,female,English,34488,dutyFree,2,main,dutyFree-smokes,"Unfortunately, we do not sell cigars, but we do have cigarettes for sale.",competitor,cigarettes,competitor,competitor
4717,55,,main,Higher degree,197577,1672240332052,1672240134475,female,English,42076,interior,3,main,interior-green,"I do not have an aloe vera plant right now, but I do have an agave plant. Would you be interested in that instead?",competitor,agave,competitor,competitor
4717,55,,main,Higher degree,197577,1672240332052,1672240134475,female,English,32617,bar,5,main,bar-whiteWine,I’m sorry.  The only wine was have right now is Chardonnay.  Would you like a glass of that?,competitor,Chardonnay,competitor,competitor
4718,38,,main,Graduated High-school,194962,1672240333851,1672240138889,male,English,52845,bookingAgency,1,main,bookingAgency-lowClassAccommodation,No but we do have a cheap bed and breakfast available,competitor,bed-and-breakfast,competitor,competitor
4738,31,,main,Graduated High-school,112630,1672240553614,1672240440984,female,English,16921,bar,1,main,bar-whiteWine,We serve Chardonnay if that is any good to you.,competitor,Chardonnay,competitor,competitor
4738,31,,main,Graduated High-school,112630,1672240553614,1672240440984,female,English,24383,waterSport,2,main,waterSport-motor,We rent water ski equipment,competitor,water ski equipment,competitor,competitor
4738,31,,main,Graduated High-school,112630,1672240553614,1672240440984,female,English,13768,dutyFree,3,main,dutyFree-smokes,"We dont, we do have cigarettes for sale.",competitor,cigarettes,competitor,competitor
4714,29,,main,Higher degree,180206,1672240318791,1672240138585,female,English,19708,petAdoption,4,main,petAdoption-hamster,We do not have hamsters but we have gerbils,competitor,gerbil,competitor,competitor
4735,42,,main,Graduated High-school,389836,1672240523325,1672240133489,male,English,25187,gymActivities,4,main,gym-boxing,"Sorry, we do not offer boxing classes. We do, however offer kickboxing classes.",competitor,kickboxing,competitor,competitor
4743,55,,main,Graduated High-school,670232,1672240799995,1672240129763,male,english,148381,bar,2,main,bar-whiteWine,"No madam but I have a delicious Chardonnay that would brighten anyone's day , would you care to sample some?",competitor,Chardonnay,competitor,competitor
4743,55,,main,Graduated High-school,670232,1672240799995,1672240129763,male,english,130194,petAdoption,3,main,petAdoption-dogs,I'm afraid not but we do have the cutest golden retriever that is looking for a loving home would you like to meet him?,competitor,golden retriever,competitor,competitor
4761,41,,main,Graduated College,284164,1672244039324,1672243755160,male,english,28676,electronics,2,main,electronics-laptop,I do have a macbook.,competitor,MacBook Air,competitor,competitor
4761,41,,main,Graduated College,284164,1672244039324,1672243755160,male,english,39285,friendsActivities,4,main,friendsActivities-boardGames,"No I don't, but I have monopoly.",competitor,Monopoly,competitor,competitor
4721,27,,main,Higher degree,222618,1672240345239,1672240122621,female,"English, French",42314,gymActivities,1,main,gym-boxing,"Yes, we do offer kickboxing classes. Would you be interested in learning more about these?",competitor,kickboxing,competitor,competitor
4721,27,,main,Higher degree,222618,1672240345239,1672240122621,female,"English, French",46511,touristInfo,4,main,touristInfo-clubbing,"Not with electronic music, but there is a club event with a hip hop DJ",competitor,hip hop DJ,competitor,competitor
4721,27,,main,Higher degree,222618,1672240345239,1672240122621,female,"English, French",32032,interior,5,main,interior-deco,Not watercolour but I do have an oil painting if that interests you,competitor,oil painting,competitor,competitor
4737,69,,main,Graduated College,415692,1672240553259,1672240137567,male,English,100690,books,1,main,books-fantasy,I have some mystery novels which I think you will love.,competitor,mystery,competitor,competitor
4737,69,,main,Graduated College,415692,1672240553259,1672240137567,male,English,60232,gymActivities,3,main,gym-boxing,No….but we have some great kickboxing classes that I think you will love.,competitor,kickboxing,competitor,competitor
4737,69,,main,Graduated College,415692,1672240553259,1672240137567,male,English,52095,bar,4,main,bar-tea,No…..but I have some iced coffee which is the best in town….you will love it.,competitor,iced coffee,competitor,competitor
4737,69,,main,Graduated College,415692,1672240553259,1672240137567,male,English,79884,waterSport,5,main,waterSport-muscle,We rent kayaks which I am sure you will be happy with.,competitor,kayak,competitor,competitor
4739,38,,main,Graduated College,511041,1672240637108,1672240126067,female,English,24101,petAdoption,5,main,petAdoption-hamster,"No, we have gerbils though which are similar to hamsters.",competitor,gerbil,competitor,competitor
4760,46,,main,Graduated High-school,303237,1672244035387,1672243732150,male,English,42894,bar,3,main,bar-whiteWine,No but i hVe a fantastic chardonnay,competitor,Chardonnay,competitor,competitor
4760,46,,main,Graduated High-school,303237,1672244035387,1672243732150,male,English,48708,gymActivities,4,main,gym-yoga,No but pilates may interest you,competitor,pilates,competitor,competitor
4727,36,,main,Graduated High-school,186614,1672240399192,1672240212578,male,English,39119,clothing,3,main,clothing-acc,"I'm sorry we don't, we do have necklaces though if you're interested?",competitor,necklace,competitor,competitor
4727,36,,main,Graduated High-school,186614,1672240399192,1672240212578,male,English,35744,interior,4,main,interior-deco,"I'm sorry I don't, but i do have an oil painting",competitor,oil painting,competitor,competitor
4727,36,,main,Graduated High-school,186614,1672240399192,1672240212578,male,English,22433,friendsActivities,5,main,friendsActivities-videoEntertainment,No but I do have some movies,competitor,movie,competitor,competitor
4750,30,,main,Graduated College,132518,1672243858741,1672243726223,male,English,18836,books,2,main,books-romance,"No, but we have books of French love letters!",competitor,French love letters,competitor,competitor
4751,28,,main,Graduated College,147153,1672243869023,1672243721870,male,English,18605,books,2,main,books-romance,"No, but we do have a book on French love letters.
",competitor,French love letters,competitor,competitor
4751,28,,main,Graduated College,147153,1672243869023,1672243721870,male,English,16779,dutyFree,3,main,dutyFree-smokes,Unfortunately not but we do sell cigarettes.,competitor,cigarettes,competitor,competitor
4756,26,,main,Graduated College,227328,1672243962813,1672243735485,female,English,48530,touristInfo,1,main,touristInfo-clubbing,"There is a club event today with a hip hop DJ, not electronic music I'm afraid.",competitor,hip hop DJ,competitor,competitor
4756,26,,main,Graduated College,227328,1672243962813,1672243735485,female,English,29308,books,5,main,books-fantasy,"Sadly not, we do have an excellent selection of mystery novels available though - would that interest you?",competitor,mystery,competitor,competitor
4736,27,,main,Graduated High-school,420516,1672240544516,1672240124000,male,English,60201,electronics,2,main,electronics-laptop,"Sorry no, we don't. we only have a MacBook Air",competitor,MacBook Air,competitor,competitor
4742,42,,main,Graduated High-school,221861,1672240750257,1672240528396,male,English,32466,cafe,2,main,cafe-pie,We currently do not have raspberry cake but we do have raspberry pie.,competitor,raspberry pie,competitor,competitor
4747,18,,main,Graduated High-school,104759,1672243832867,1672243728108,male,english,17488,touristInfo,4,main,touristInfo-clubbing,no but there is with a hip hop DJ,competitor,hip hop DJ,competitor,competitor
4747,18,,main,Graduated High-school,104759,1672243832867,1672243728108,male,english,11946,bar,5,main,bar-tea,no but we have iced coffee,competitor,iced coffee,competitor,competitor
4757,57,,main,Graduated College,233601,1672243964113,1672243730512,female,English,70645,books,1,main,books-romance,We don’t have a love poem but we do have a book of French love letters if that’s any use to you?,competitor,French love letters,competitor,competitor
4757,57,,main,Graduated College,233601,1672243964113,1672243730512,female,English,36709,zoo,2,main,zoo-xl,Shall we go and look at the lion? That’s the closest thing to a tiger they have here today.,competitor,lion,competitor,competitor
4757,57,,main,Graduated College,233601,1672243964113,1672243730512,female,English,29034,touristInfo,4,main,touristInfo-childTheatre,We have a circus show that would be suitable for children.,competitor,circus,competitor,competitor
4748,24,,main,Graduated College,106734,1672243838314,1672243731580,male,English,26761,kidsActivities,4,main,kidsActivities-crafts,There isn't but I bet you would love the painting class!,competitor,watercolor painting,competitor,competitor
4752,54,,main,Graduated High-school,196276,1672243936719,1672243740443,male,English,30548,electronics,2,main,electronics-console,"I'm sorry, no, we don't have one in stock at the moment. Are you interested in an Xbox?",competitor,Xbox,competitor,competitor
4752,54,,main,Graduated High-school,196276,1672243936719,1672243740443,male,English,34584,petAdoption,3,main,petAdoption-hamster,"I'm sorry, no, we don't have any at the moment. Would you consider a gerbil?",competitor,gerbil,competitor,competitor
4752,54,,main,Graduated High-school,196276,1672243936719,1672243740443,male,English,25182,bar,5,main,bar-tea,"I'm sorry, no, we have iced coffee but no iced tea.",competitor,iced coffee,competitor,competitor
4759,39,,main,Graduated College,268729,1672243997648,1672243728919,female,English,35817,gymActivities,1,main,gym-boxing,"No, but we offer kickboxing lessons.",competitor,kickboxing,competitor,competitor
4759,39,,main,Graduated College,268729,1672243997648,1672243728919,female,English,40245,touristInfo,3,main,touristInfo-clubbing,There is a club event with a hip hop DJ.,competitor,hip hop DJ,competitor,competitor
4759,39,,main,Graduated College,268729,1672243997648,1672243728919,female,English,74553,kidsActivities,4,main,kidsActivities-sports,"No, but there is an acrobatics class.",competitor,acrobatics,competitor,competitor
4755,29,,main,Graduated College,219635,1672243949575,1672243729940,female,English,49493,interior,2,main,interior-green,No but we have an agave plant,competitor,agave,competitor,competitor
4755,29,,main,Graduated College,219635,1672243949575,1672243729940,female,English,35932,bar,3,main,bar-whiteWine,No but we have chardonnay,competitor,Chardonnay,competitor,competitor
4762,66,,main,Higher degree,393355,1672244129375,1672243736020,male,English,98638,books,3,main,books-fantasy,Sorry no but I do have some mystery novels if they would be any good,competitor,mystery,competitor,competitor
4762,66,,main,Higher degree,393355,1672244129375,1672243736020,male,English,52171,cafe,5,main,cafe-pizza,the only pizza I have is a cheese pizza if that would do,competitor,cheese,competitor,competitor
4758,27,,main,Graduated College,232156,1672243966180,1672243734024,male,English,40320,books,2,main,books-fantasy,"You may find our mystery novels to be your liking, but, if not, I do have a few recommendations you may find elsewhere.",competitor,mystery,competitor,competitor
4758,27,,main,Graduated College,232156,1672243966180,1672243734024,male,English,48488,gymActivities,4,main,gym-boxing,"Unfortunately not, but, may I interest you in some of our top of the range kickboxing classes? You may find that it gives you the adrenaline rush - and fitness regime - that you're looking for.",competitor,kickboxing,competitor,competitor
4765,35,,main,Graduated College,205041,1672244285138,1672244080097,male,English,76969,interior,1,main,interior-deco,"No, i have an oil painting though",competitor,oil painting,competitor,competitor
4765,35,,main,Graduated College,205041,1672244285138,1672244080097,male,English,48639,touristInfo,4,main,touristInfo-clubbing,"no, there is a hip-hop dj though",competitor,hip hop DJ,competitor,competitor
4765,35,,main,Graduated College,205041,1672244285138,1672244080097,male,English,22881,petAdoption,5,main,petAdoption-hamster,"No, we have gerbils",competitor,gerbil,competitor,competitor
4764,35,,main,Graduated College,511266,1672244258996,1672243747730,female,English,89432,bookingAgency,2,main,bookingAgency-highClassAccommodation,Unfortunatly we don't but I can offer you a suite in a 4 star hotel.,competitor,four-star hotel,competitor,competitor
4764,35,,main,Graduated College,511266,1672244258996,1672243747730,female,English,78827,zoo,3,main,zoo-reptiles,Well we can go the the iguanas and ask the people who look after them if we can see the chameleon.,competitor,iguana,competitor,competitor
4639,33,,main,Graduated College,430559,1672166107088,1672165676529,male,"English, Yoruba",74124,gymActivities,1,main,gym-yoga,"No, we do not offer yoga classes, we only offer pilates class, kickboxing, and zumba classes.",fullList,"pilates, zumba, kickboxing","competitor, sameCategory, otherCategory",fullList
4664,51,thanks,main,Higher degree,451527,1672169690783,1672169239256,male,English,124168,petAdoption,1,main,petAdoption-dogs,"""I am sorry, but all I have at the moment are golden retrievers, chihuahuas and a gerbil named Fred""",fullList,"golden retriever, chihuahua, gerbil","competitor, sameCategory, otherCategory",fullList
4664,51,thanks,main,Higher degree,451527,1672169690783,1672169239256,male,English,63694,dutyFree,4,main,dutyFree-smokes,"""Sorry we do not do cigars. All we have are gingerbread, gin and cigarettes""",fullList,"cigarettes, gin, gingerbread","competitor, sameCategory, otherCategory",fullList
4664,51,thanks,main,Higher degree,451527,1672169690783,1672169239256,male,English,73816,cafe,5,main,cafe-pie,"""Sorry, I only have raspberry pie, but I can offer you a cheesy pizza or chocolate cookie""",fullList,"raspberry pie, cheese pizza, chocolate cookies","competitor, sameCategory, otherCategory",fullList
4615,21,I think just make the  font size a little bit bigger,main,Higher degree,164587,1672164847535,1672164682948,female,English,48902,kidsActivities,1,main,kidsActivities-crafts,"No hun, there is no pottery class but there are acrobatics, watercolor painting and carpentry classes",fullList,"watercolor painting, carpentry, acrobatics","competitor, sameCategory, otherCategory",fullList
4615,21,I think just make the  font size a little bit bigger,main,Higher degree,164587,1672164847535,1672164682948,female,English,32392,bar,2,main,bar-whiteWine,"Unfortunately we do not. However we do have iced coffee, chardonnay and  craft beer.",fullList,"Chardonnay, craft beer, iced coffee","competitor, sameCategory, otherCategory",fullList
4615,21,I think just make the  font size a little bit bigger,main,Higher degree,164587,1672164847535,1672164682948,female,English,21199,waterSport,4,main,waterSport-motor,"No sorry we only offer rubber dinghies, water ski equipment and kayaks.",fullList,"water ski equipment, rubber dinghies, kayak","competitor, sameCategory, otherCategory",fullList
4617,24,,main,Graduated College,183518,1672164871173,1672164687655,female,"English, Japanese",32921,kidsActivities,4,main,kidsActivities-sports,"Sorry, we don't have gymnastics, but why don't you give acrobatics or karate a go? Or we have watercolour painting as well.",fullList,"acrobatics, karate, watercolor painting","competitor, sameCategory, otherCategory",fullList
4633,40,,main,Graduated College,200187,1672165880913,1672165680726,male,English,66245,touristInfo,2,main,touristInfo-clubbing,"No, but there is a hip hop show, a circus show and a jazz show",fullList,"jazz, circus show, hip hop DJ","competitor, sameCategory, otherCategory",fullList
4644,58,,main,Graduated College,272968,1672167891866,1672167618898,male,English,51042,electronics,1,main,electronics-console,"No we do not but we have an Xbox, a game boy and a MacBook air",fullList,"Xbox, MacBook Air, Gameboy","competitor, sameCategory, otherCategory",fullList
4644,58,,main,Graduated College,272968,1672167891866,1672167618898,male,English,56228,gymActivities,3,main,gym-boxing,"No we do not but would you like to try kickboxing, karate or even some pilates",fullList,"kickboxing, karate, pilates","competitor, sameCategory, otherCategory",fullList
4660,38,,main,Graduated College,340022,1672168822320,1672168482298,male,English,164492,bookingAgency,1,main,bookingAgency-highClassAccommodation,"No but we have an apartment close to the city, a room in a bed and breakfast and a suite in a four-star hotel available.",fullList,"four-star hotel, bed-and-breakfast, apartment","competitor, sameCategory, otherCategory",fullList
4660,38,,main,Graduated College,340022,1672168822320,1672168482298,male,English,29109,waterSport,5,main,waterSport-muscle,"No but we can offer pedal boats, water ski equipment and kayaks.",fullList,"kayak, pedal boat, water ski equipment","competitor, sameCategory, otherCategory",fullList
4663,22,,main,Graduated College,344648,1672169075225,1672168730577,male,english,97785,friendsActivities,3,main,friendsActivities-boardGames,"i have monopoly,some movies,checkers",fullList,"Monopoly, checkers, movie","competitor, sameCategory, otherCategory",fullList
4625,40,,main,Graduated College,106425,1672165773127,1672165666702,female,English,24483,friendsActivities,3,main,friendsActivities-boardGames,"Ah no we don't but I have got checkers, movies and monopoly",fullList,"Monopoly, checkers, movie","competitor, sameCategory, otherCategory",fullList
4706,23,,main,Graduated College,119359,1672240253405,1672240134046,male,English,27535,gymActivities,2,main,gym-yoga,"No, we offer kickboxing, zumba and pilates",fullList,"pilates, zumba, kickboxing","competitor, sameCategory, otherCategory",fullList
4706,23,,main,Graduated College,119359,1672240253405,1672240134046,male,English,18788,kidsActivities,3,main,kidsActivities-crafts,"No, only acrobatics, watercolor and carpentry",fullList,"carpentry, acrobatics, watercolor painting","competitor, sameCategory, otherCategory",fullList
4706,23,,main,Graduated College,119359,1672240253405,1672240134046,male,English,21142,petAdoption,5,main,petAdoption-dogs,"no, only golden retirevers, gerbils and chihuahuas",fullList,"chihuahua, gerbil, golden retriever","competitor, sameCategory, otherCategory",fullList
4651,60,,main,Graduated High-school,201156,1672168679852,1672168478696,male,English,37411,clothing,3,main,clothing-clothes,"No we haven't - we have shorts, necklaces and sweatshirts.",fullList,"shorts, sweatshirt, necklace","competitor, sameCategory, otherCategory",fullList
4651,60,,main,Graduated High-school,201156,1672168679852,1672168478696,male,English,47828,friendsActivities,5,main,friendsActivities-boardGames,"I have prepared movies, checkers and Monopoly. I may have scrabble somewhere - shall I have a look?",fullList,"Monopoly, checkers, movie","competitor, sameCategory, otherCategory",fullList
4692,20,,main,Graduated High-school,194401,1672237099998,1672236905597,other,English,53010,bookingAgency,5,main,bookingAgency-highClassAccommodation,"There isn't, sorry, however we do have a room in a bed-and-breakfast, a suite in a four-star hotel and an apartment that's close to the city.",fullList,"four-star hotel, bed-and-breakfast, apartment","competitor, sameCategory, otherCategory",fullList
4685,27,,main,Graduated College,95714,1672237002197,1672236906483,male,English,19997,waterSport,5,main,waterSport-muscle,"Kayaks, pedal boats and water ski equipment, but no canoes.",fullList,"kayak, pedal boat, water ski equipment","competitor, sameCategory, otherCategory",fullList
4656,62,,main,Graduated High-school,305912,1672168784565,1672168478653,female,english,58977,friendsActivities,4,main,friendsActivities-boardGames,"No, we don't have scrabble, but we do have monopoly, and there's also checkers and some movie we can watch",fullList,"Monopoly, checkers, movie","competitor, sameCategory, otherCategory",fullList
4656,62,,main,Graduated High-school,305912,1672168784565,1672168478653,female,english,77248,kidsActivities,5,main,kidsActivities-crafts,Unfortunately we don't have a pottery class. But maybe you would like a painting class. Or there'd also carpentry or acrobatics classes.,fullList,"carpentry, acrobatics, watercolor painting","competitor, sameCategory, otherCategory",fullList
4662,22,,main,Higher degree,445193,1672168924340,1672168479147,male,English,119539,dutyFree,2,main,dutyFree-sweets,I'm sorry we don't have cookies. Would you like to purchase some duty-free granola bars or gingerbread instead? We've also got cigarettes on sale if you'd like.,fullList,"gingerbread, granola bars, cigarettes","competitor, sameCategory, otherCategory",fullList
4662,22,,main,Higher degree,445193,1672168924340,1672168479147,male,English,88755,books,3,main,books-fantasy,"Hi, sorry we don't have those in stock at the moment. Though if you're interested, we've got some mystery novels, adventure novels and books of French love letters.",fullList,"mystery, adventure, French love letters","competitor, sameCategory, otherCategory",fullList
4662,22,,main,Higher degree,445193,1672168924340,1672168479147,male,English,60138,bar,5,main,bar-tea,"Sorry ma'am, we only serve soda, Chardonnay and iced coffee here. Would you like some?",fullList,"iced coffee, soda, Chardonnay","competitor, sameCategory, otherCategory",fullList
4713,26,,main,Graduated High-school,190952,1672240314740,1672240123788,male,English,48001,friendsActivities,3,main,friendsActivities-videoEntertainment,"I do not have netflix, but we can play some Xbox games and Monopoly. I also have some movies available for us to watch without needing Netflix.",fullList,"movie, Xbox games, Monopoly","competitor, sameCategory, otherCategory",fullList
4713,26,,main,Graduated High-school,190952,1672240314740,1672240123788,male,English,18382,clothing,4,main,clothing-acc,"We do not have earrings, we only have necklaces, sunglasses, and shorts in stock.",fullList,"necklace, sunglasses, shorts","competitor, sameCategory, otherCategory",fullList
4728,46,,main,Higher degree,272615,1672240412216,1672240139601,female,english,55349,clothing,2,main,clothing-acc,"no, sorry just sunglasses, shorts and necklaces",fullList,"necklace, sunglasses, shorts","competitor, sameCategory, otherCategory",fullList
4741,63,All worked fine,main,Graduated High-school,462786,1672240717892,1672240255106,male,English,103228,kidsActivities,5,main,kidsActivities-crafts,"I'm sorry but we don't have any kilns to give pottery classes at the moment. Have you tried all of watercolour painting, carpentry and acrobatics before and given up on them?",fullList,"carpentry, acrobatics, watercolor painting","competitor, sameCategory, otherCategory",fullList
4677,33,an actual enjoyable survey. thanks! :),main,Graduated College,332258,1672171893603,1672171561345,other,English,23401,bar,3,main,bar-tea,"sorry, no. we only have soda, chardonnay, and iced coffee.",fullList,"iced coffee, soda, Chardonnay","competitor, sameCategory, otherCategory",fullList
4677,33,an actual enjoyable survey. thanks! :),main,Graduated College,332258,1672171893603,1672171561345,other,English,30893,electronics,4,main,electronics-console,"We don't, sorry, but we have a gameboy, macbook air, and an xbox if you'd be interested in looking at those.",fullList,"Xbox, Gameboy, MacBook Air","competitor, sameCategory, otherCategory",fullList
4688,34,,main,Graduated College,143033,1672237050935,1672236907902,female,English,17775,gymActivities,3,main,gym-boxing,"Not at the moment, just kickboxing, pilates and karate.",fullList,"kickboxing, karate, pilates","competitor, sameCategory, otherCategory",fullList
4725,40,,main,Higher degree,249426,1672240369811,1672240120385,female,english,60204,kidsActivities,1,main,kidsActivities-sports,"No there is a karate class, a watercolor painting class and an acrobatics class. You may enjoy acrobatics though it is pretty similar to gymnastics in many ways and you can learn some similar skills.",fullList,"acrobatics, karate, watercolor painting","competitor, sameCategory, otherCategory",fullList
4725,40,,main,Higher degree,249426,1672240369811,1672240120385,female,english,28716,electronics,2,main,electronics-console,"No we don't have any play stations. We have a Gameboy, an xbos and a mac book air.",fullList,"Gameboy, Xbox, MacBook Air","competitor, sameCategory, otherCategory",fullList
4697,57,,main,Graduated College,291393,1672237238869,1672236947476,male,English,121856,gymActivities,2,main,gym-boxing,"Not boxing, but we offer kickboxing, pliates and karate classes which might be worthwhile checking out",fullList,"kickboxing, karate, pilates","competitor, sameCategory, otherCategory",fullList
4698,58,,main,Graduated College,295519,1672237210045,1672236914526,male,english,101388,bookingAgency,2,main,bookingAgency-highClassAccommodation,"No sorry, but we do have an up market apartment, a suite in a 4 star hotel or a room in a lower end b and b",fullList,"bed-and-breakfast, apartment, four-star hotel","competitor, sameCategory, otherCategory",fullList
4745,32,,main,Higher degree,1448945,1672241577263,1672240128318,male,English,147446,petAdoption,4,main,petAdoption-dogs,"Sorry we don't have any Dalmations in the rescue centre. We only have Chihuahuas, gerbils and golden retrievers. Would you like to have a look",fullList,"golden retriever, chihuahua, gerbil","competitor, sameCategory, otherCategory",fullList
4766,30,,main,Higher degree,663522,1672244426512,1672243762990,male,English,119891,friendsActivities,3,main,friendsActivities-boardGames,"No, I wish i do but i have prepared some nice movies, monopoly and checkers",fullList,"Monopoly, checkers, movie","competitor, sameCategory, otherCategory",fullList
4766,30,,main,Higher degree,663522,1672244426512,1672243762990,male,English,211379,bar,5,main,bar-whiteWine,"Sorry Madam. We do not serve Sauvignon Blanc in our hotel. Here are a list of drinks we have available Chardonnay, craft beer and iced coffee",fullList,"Chardonnay, craft beer, iced coffee","competitor, sameCategory, otherCategory",fullList
4720,39,,main,Graduated College,219925,1672240341308,1672240121383,male,english,49642,bar,1,main,bar-tea,"we dont im afraid we have soda, iced coffee and chardonnay only.",fullList,"iced coffee, soda, Chardonnay","competitor, sameCategory, otherCategory",fullList
4720,39,,main,Graduated College,219925,1672240341308,1672240121383,male,english,45217,zoo,5,main,zoo-reptiles,"no we cant we can go see the turtles, lion or iguanas if you like",fullList,"iguana, turtle, lion","competitor, sameCategory, otherCategory",fullList
4735,42,,main,Graduated High-school,389836,1672240523325,1672240133489,male,English,121196,petAdoption,5,main,petAdoption-hamster,"I’m sorry we do not currently have hamsters. The adoption center currently has gerbils, ferrets, and golden retrievers.",fullList,"gerbil, ferret, golden retriever","competitor, sameCategory, otherCategory",fullList
4750,30,,main,Graduated College,132518,1672243858741,1672243726223,male,English,41055,bookingAgency,1,main,bookingAgency-lowClassAccommodation,"No, but there is a room in a cheap bed-and-breakfast, a suite in a 4-star hotel, and a room in a budget hotel.",fullList,"bed-and-breakfast, budget hotel, four-star hotel","competitor, sameCategory, otherCategory",fullList
4750,30,,main,Graduated College,132518,1672243858741,1672243726223,male,English,22487,waterSport,3,main,waterSport-motor,"No we only rent rubber dinghies, kayaks, and water ski equipment.",fullList,"water ski equipment, rubber dinghies, kayak","competitor, sameCategory, otherCategory",fullList
4750,30,,main,Graduated College,132518,1672243858741,1672243726223,male,English,17463,friendsActivities,4,main,friendsActivities-boardGames,"No, but I have Monopoly, checkers, and some movies!",fullList,"Monopoly, checkers, movie","competitor, sameCategory, otherCategory",fullList
4751,28,,main,Graduated College,147153,1672243869023,1672243721870,male,English,51453,bookingAgency,1,main,bookingAgency-lowClassAccommodation,"No, the only options we have are a room in a budget hotel, a suite in a four-star hotel, and a roon in a cheap bed-and-breakfast.",fullList,"bed-and-breakfast, budget hotel, four-star hotel","competitor, sameCategory, otherCategory",fullList
4756,26,,main,Graduated College,227328,1672243962813,1672243735485,female,English,32052,cafe,2,main,cafe-pizza,"I'm afraid we only have cheese pizza and pepperoni pizza, not veggie pizzas here. However, we also have raspberry pie if that interests you?",fullList,"cheese, pepperoni, raspberry pie","competitor, sameCategory, otherCategory",fullList
4756,26,,main,Graduated College,227328,1672243962813,1672243735485,female,English,54607,electronics,4,main,electronics-console,"Unfortunately we do not have any PlayStations here. We currently have Xbox and Gameboys in terms of consoles. Or if you prefer to game on a laptop, we have MacBook Airs also available.",fullList,"Xbox, Gameboy, MacBook Air","competitor, sameCategory, otherCategory",fullList
4736,27,,main,Graduated High-school,420516,1672240544516,1672240124000,male,English,196932,interior,1,main,interior-green,"Unfortunately, I don't at the moment. I only have tulips, an agave plant and an oil painting. It might be possible to get you some if I'm given some time to work on it.",fullList,"agave, tulips, oil painting","competitor, sameCategory, otherCategory",fullList
4764,35,,main,Graduated College,511266,1672244258996,1672243747730,female,English,123703,waterSport,1,main,waterSport-muscle,"No, but we do rent out pedal boats, water ski equipment and kayaks.",fullList,"kayak, pedal boat, water ski equipment","competitor, sameCategory, otherCategory",fullList
4627,30,,main,Graduated College,169632,1672165773559,1672165603927,male,English,33634,books,4,main,books-fantasy,No we only sell books on french love letters and adventure novels,other,"adventure, French love letters","competitor, otherCategory",otherCategory
4653,45,,main,Graduated High-school,217021,1672168702974,1672168485953,female,English,43859,touristInfo,1,main,touristInfo-clubbing,The DJ might play some electronic music.,other,,alternative,alternative
4605,23,,main,Graduated College,247064,1672163430843,1672163183779,female,English,37760,electronics,4,main,electronics-console,Unfortunately we do not have any playstations in stock. However we do have other electronics and game consoles.,other,,alternative,alternative
4643,60,,main,Graduated College,678649,1672166354788,1672165676139,male,English,212361,zoo,2,main,zoo-reptiles,Yes. We'll see it soon. Let's see all the animals. We'll be at the reptile house soon.,other,,alternative,alternative
4613,30,,main,Graduated College,112591,1672164823439,1672164710848,female,English,20503,electronics,3,main,electronics-console,"We don't unfortunately, would you like me to show you what we have in stock?",other,,alternative,alternative
4634,69,,main,Did not graduate High-school,227212,1672165893433,1672165666221,male,English,32403,bar,3,main,bar-whiteWine,Sorry we only have Chardonnay or iced coffee,other,"Chardonnay, iced coffee","competitor, otherCategory",otherCategory
4657,62,Nothing to add.,main,Graduated College,307308,1672168785168,1672168477860,male,English,47628,friendsActivities,2,main,friendsActivities-videoEntertainment,"Afraid not, but i've prepared some movies and games for us all.",other,movie,competitor,competitor
4670,33,,main,Graduated College,170482,1672171760039,1672171589557,male,English,26988,interior,4,main,interior-deco,No but I do have water colours.,other,,alternative,alternative
4620,28,,main,Higher degree,231683,1672164906357,1672164674674,female,English,51081,bookingAgency,2,main,bookingAgency-highClassAccommodation,No it isn’t however could i interest you in this one?,other,,alternative,alternative
4620,28,,main,Higher degree,231683,1672164906357,1672164674674,female,English,30836,zoo,4,main,zoo-reptiles,We will work our away around and get there eventually,other,,alternative,alternative
4620,28,,main,Higher degree,231683,1672164906357,1672164674674,female,English,20144,bar,5,main,bar-tea,I don’t but I can see what I can do,other,,alternative,alternative
4642,68,,main,Did not graduate High-school,506044,1672166176808,1672165670764,male,English,92199,zoo,3,main,zoo-reptiles,Sorry they do not have a chameleon but they have other animals to see in the zoo.,other,,alternative,alternative
4679,36,,main,Graduated High-school,371599,1672171954719,1672171583120,male,English,110021,interior,1,main,interior-green,"I don't, but I'd quite like one, next time I'm at the garden centre, I'll pick one up for each of us. You can have one as a house warminf present.",other,,alternative,alternative
4679,36,,main,Graduated High-school,371599,1672171954719,1672171583120,male,English,71739,clothing,2,main,clothing-clothes,"I'm very sorry, we don't have that in stock, I'll speak to our other stores and see if we have anything like that in stock elsewhere for you.",other,,alternative,alternative
4638,39,,main,Higher degree,363856,1672166025082,1672165661226,male,English,110468,touristInfo,1,main,touristInfo-clubbing,"Hi, we don't have any electronic music events in town today but we do have several other music events. Would you be interested to know more about these?",other,,alternative,alternative
4638,39,,main,Higher degree,363856,1672166025082,1672165661226,male,English,70223,petAdoption,2,main,petAdoption-hamster,"Hello, well we don't have any in right now. Is there something about hamsters that really interest you? Because we do have other animal in need of rehoming",other,,alternative,alternative
4638,39,,main,Higher degree,363856,1672166025082,1672165661226,male,English,59352,books,4,main,books-fantasy,While we don't have any directly of that genre please take a look at these other titles that may have something you are looking for,other,,alternative,alternative
4641,49,,main,Did not graduate High-school,201162,1672166111327,1672165910165,female,English,63925,petAdoption,5,main,petAdoption-dogs,No we don’t have any Dalmatian’s at present but we have these other breeds,other,,alternative,alternative
4702,54,,main,Graduated College,432511,1672237346494,1672236913983,male,English,81871,electronics,5,main,electronics-console,"No sorry, we don't stock any Playstations. Do any of these other games consoles interest you?",other,,alternative,alternative
4703,44,,main,Graduated College,896341,1672237798872,1672236902531,male,English,302246,friendsActivities,2,main,friendsActivities-videoEntertainment,I don't have Netflix but I have some movies and games for us to play this evening. You won't miss Netflix trust me!,other,movie,"competitor, alternative",other_response
4703,44,,main,Graduated College,896341,1672237798872,1672236902531,male,English,57279,gymActivities,3,main,gym-boxing,No we do not have boxing classes but we offer the following classes if these are of interest to you ?,other,,alternative,alternative
4703,44,,main,Graduated College,896341,1672237798872,1672236902531,male,English,255950,dutyFree,5,main,dutyFree-sweets,"I'm sorry but I dont have any cookies at the moment, but I will check for you if we can offer that, I have the following items if these interest you?",other,,alternative,alternative
4671,42,,main,Graduated High-school,139008,1672171774501,1672171635493,female,English,22823,kidsActivities,5,main,kidsActivities-crafts,"No, but we have some great alternatives",other,,alternative,alternative
4708,36,,main,Graduated High-school,145436,1672240271362,1672240125926,male,English,23864,interior,2,main,interior-deco,"No, but I can make you one.",other,,alternative,alternative
4724,43,,main,Graduated College,238749,1672240365099,1672240126350,female,English,50687,friendsActivities,5,main,friendsActivities-videoEntertainment,"No, there is no Netflix but there’s plenty of other options for entertainment.",other,,alternative,alternative
4655,38,,main,Higher degree,281556,1672168763309,1672168481753,female,English,52872,dutyFree,1,main,dutyFree-smokes,"No I’m afraid we do not sell those on board.
Would you like anything else?
",other,,alternative,alternative
4678,51,all great.,main,Graduated College,366214,1672171954080,1672171587866,female,"English, Estonian",39383,friendsActivities,5,main,friendsActivities-videoEntertainment,"Netflix is boring, let's play some games guys",other,,alternative,alternative
4680,56,,main,Graduated High-school,408270,1672171995137,1672171586867,female,English,33926,bar,2,main,bar-tea,We don’t generally have iced tea but I’ll see what I can do for you,other,,alternative,alternative
4680,56,,main,Graduated High-school,408270,1672171995137,1672171586867,female,English,63033,interior,3,main,interior-deco,Yes I have some paintings. Also if interested I have plant as well to make your house look homely,other,,alternative,alternative
4744,50,,main,Graduated College,679177,1672240884035,1672240204858,female,English,118834,books,2,main,books-fantasy,"Unfortunately we don't have them on shelf at the moment, however, I'd be happy to order some for you if you're interested.",other,,alternative,alternative
4744,50,,main,Graduated College,679177,1672240884035,1672240204858,female,English,170711,kidsActivities,4,main,kidsActivities-sports,No. We have other interesting classes if you'd like to try.,other,,alternative,alternative
4666,25,,main,Graduated College,114802,1672171693907,1672171579105,female,English,32468,zoo,5,main,zoo-reptiles,"Yes, we can look at the reptile area",other,,alternative,alternative
4741,63,All worked fine,main,Graduated High-school,462786,1672240717892,1672240255106,male,English,114856,dutyFree,2,main,dutyFree-smokes,"Sorry, but we are sold out of cigars at the moment. I can arrange for some to be available when we land tho if you tell me which ones you are interested in.",other,,alternative,alternative
4716,24,,main,Higher degree,204818,1672240331817,1672240126999,female,english,37352,zoo,4,main,zoo-reptiles,let’s see the other animals first and then we can find the chameleon,other,,alternative,alternative
4734,40,,main,Higher degree,394492,1672240506248,1672240111756,male,english,35363,friendsActivities,3,main,friendsActivities-boardGames,"Sorry, I haven't. I've got other games",other,,alternative,alternative
4734,40,,main,Higher degree,394492,1672240506248,1672240111756,male,english,34676,gymActivities,4,main,gym-yoga,No we don't but we do offer many other classes that might be of interest?,other,,alternative,alternative
4694,25,i enjoyed this id like to do more like this,main,Graduated High-school,213829,1672237113708,1672236899879,female,English,54641,waterSport,3,main,waterSport-motor,"We do have a range of water ski equipment, but I will have to double check if we specifically have jet skis avaliable at the moment",competitor,water ski equipment,competitor,competitor
4684,67,none,main,Higher degree,431656,1672172747943,1672172316287,female,English,81032,petAdoption,1,main,petAdoption-dogs,"Currently no but we do have other dogs desperate for a new homme

",other,,alternative,alternative
4684,67,none,main,Higher degree,431656,1672172747943,1672172316287,female,English,85391,bookingAgency,2,main,bookingAgency-lowClassAccommodation,Not that precise accommodation but we do have alternatives which are not too expensive,other,,alternative,alternative
4688,34,,main,Graduated College,143033,1672237050935,1672236907902,female,English,23216,zoo,4,main,zoo-reptiles,Soon we can see something very like a chameleon,other,,alternative,alternative
4719,34,Nil,main,Higher degree,212503,1672240338178,1672240125675,female,english,29635,books,4,main,books-fantasy,no not here but can I recommend something else?,other,,alternative,alternative
4719,34,Nil,main,Higher degree,212503,1672240338178,1672240125675,female,english,38203,zoo,5,main,zoo-reptiles,"I'm not sure if there are any. Should we walk around and see?
",other,,alternative,alternative
4722,76,,main,Graduated College,221967,1672240350422,1672240128455,female,English,34530,petAdoption,5,main,petAdoption-dogs,"No, sorry. We do have some other dogs you may like to see",other,,alternative,alternative
4729,24,,main,Graduated High-school,264807,1672240412648,1672240147841,male,English,68851,zoo,1,main,zoo-reptiles,Maybe. I'm not sure if there is a chameleon or not. Let's double check the map.,other,,alternative,alternative
4729,24,,main,Graduated High-school,264807,1672240412648,1672240147841,male,English,45217,friendsActivities,2,main,friendsActivities-videoEntertainment,"No, I don't but if you do then you can log in on my Xbox and we can watch a movie.",other,movie,"competitor, alternative",other_response
4754,44,,main,Graduated College,215809,1672243943151,1672243727342,male,English,48656,friendsActivities,3,main,friendsActivities-boardGames,That's a great game!  We might have it.  Let me go look.,other,,alternative,alternative
4697,57,,main,Graduated College,291393,1672237238869,1672236947476,male,English,44705,clothing,5,main,clothing-acc,Not at the moment. We are expecting a delivery later this week. Is there anything in oarticular you are looking for,other,,alternative,alternative
4698,58,,main,Graduated College,295519,1672237210045,1672236914526,male,english,38041,clothing,3,main,clothing-acc,"No sorry we sold the last ones this morning, they will be in stock next Tuesday",other,,alternative,alternative
4749,42,,main,Graduated High-school,127488,1672243854044,1672243726556,male,English,24448,books,5,main,books-fantasy,"Not at the moment, can i help you find something else?",other,,alternative,alternative
4712,27,,main,Higher degree,175776,1672240302383,1672240126607,female,English,44165,petAdoption,2,main,petAdoption-hamster,No we don't have any hamsters but we have other small animals.,other,,alternative,alternative
4718,38,,main,Graduated High-school,194962,1672240333851,1672240138889,male,English,30045,zoo,2,main,zoo-xl,I'm not sure if they have tigers,other,,alternative,alternative
4718,38,,main,Graduated High-school,194962,1672240333851,1672240138889,male,English,19777,bar,4,main,bar-whiteWine,Il see if there is any in the back,other,,alternative,alternative
4714,29,,main,Higher degree,180206,1672240318791,1672240138585,female,English,27037,friendsActivities,3,main,friendsActivities-videoEntertainment,I have some movies prepared or we could play some games,other,movie,alternative,alternative
4743,55,,main,Graduated High-school,670232,1672240799995,1672240129763,male,english,90563,friendsActivities,4,main,friendsActivities-boardGames,Yes but it has letters missing so we'll have to stick to these two games or watch a movie.,other,movie,alternative,alternative
4746,30,,main,Graduated High-school,213485,1672242522442,1672242308957,male,English,37930,zoo,3,main,zoo-xl,"We will but let's look at other animals first
",other,,alternative,alternative
4761,41,,main,Graduated College,284164,1672244039324,1672243755160,male,english,52361,books,1,main,books-romance,Wait and I will have a look.,other,,alternative,alternative
4739,38,,main,Graduated College,511041,1672240637108,1672240126067,female,English,30536,zoo,2,main,zoo-reptiles,I don't believe they have chameleons at this zoo.  But they have other reptiles we can look at.,other,,alternative,alternative
4727,36,,main,Graduated High-school,186614,1672240399192,1672240212578,male,English,42385,kidsActivities,1,main,kidsActivities-sports,"I'm sorry there isn't, but let me show you what we do have available",other,,alternative,alternative
4742,42,,main,Graduated High-school,221861,1672240750257,1672240528396,male,English,48789,interior,4,main,interior-green,I have several other plants but do not currently have an aloe vera plant.,other,,alternative,alternative
4742,42,,main,Graduated High-school,221861,1672240750257,1672240528396,male,English,72010,touristInfo,5,main,touristInfo-childTheatre,There’s not a theater performance scheduled but there are several other featured events.,other,,alternative,alternative
4740,41,,main,Graduated College,520475,1672240684262,1672240163787,male,English,125335,cafe,2,main,cafe-pizza,"Hi . When you say veggie pizza , can that be a cheese pizza ? As we have that which has no meat! We do have a scrummy raspberry pie too if that might take your fancy . But I’m afraid we don’t specifically have a veggie pizza on offer today .",other,"cheese, raspberry pie","competitor, otherCategory",otherCategory
4740,41,,main,Graduated College,520475,1672240684262,1672240163787,male,English,92023,friendsActivities,3,main,friendsActivities-videoEntertainment,"Oh no don’t have Netflix . We have something much better than that …  a selection of films to hand without scrolling through a subscription site . We have board games like Monopoly and computer games, so who needs Netflix",other,"movies, Monopoly","competitor, otherCategory",otherCategory
4757,57,,main,Graduated College,233601,1672243964113,1672243730512,female,English,30057,friendsActivities,3,main,friendsActivities-boardGames,No scrabble but lots of other things; do you want to choose one of these instead?,other,,alternative,alternative
4748,24,,main,Graduated College,106734,1672243838314,1672243731580,male,English,18371,interior,3,main,interior-green,I dont but I may next year,other,,alternative,alternative
4759,39,,main,Graduated College,268729,1672243997648,1672243728919,female,English,50844,bookingAgency,5,main,bookingAgency-highClassAccommodation,"No, but there is a suite at a four-star hotel or a room at a cheap bed and breakfast.",other,"four-star hotel, bed-and-breakfast","competitor, otherCategory",otherCategory
4758,27,,main,Graduated College,232156,1672243966180,1672243734024,male,English,53945,petAdoption,1,main,petAdoption-hamster,"I personally don't, but it's has been tempting!",other,,alternative,alternative
4765,35,,main,Graduated College,205041,1672244285138,1672244080097,male,English,19751,electronics,2,main,electronics-console,"No, sorry, we have other consoles though",other,,alternative,alternative
4764,35,,main,Graduated College,511266,1672244258996,1672243747730,female,English,62039,petAdoption,4,main,petAdoption-hamster,"No we don't. If you are interested in finding out more info of any of our other animals, just ask.",other,,alternative,alternative
4682,56,Thank you,main,Graduated College,534728,1672172136788,1672171602060,male,English,127269,zoo,3,main,zoo-reptiles,I don’t think they have a chameleon but they’ve got lions! They’re much more exciting!,otherCategory,lion,otherCategory,otherCategory
4715,43,,main,Graduated High-school,200018,1672240321928,1672240121910,male,English,38725,zoo,4,main,zoo-reptiles,No the zoo doesn't have any of those but they have lions,otherCategory,lion,otherCategory,otherCategory
4627,30,,main,Graduated College,169632,1672165773559,1672165603927,male,English,41141,interior,3,main,interior-deco,"We dont have watercolour but we do have, Oil paintings and printed photographs",sameCategory,"oil painting, photographs","competitor, sameCategory",sameCategory
4652,36,,main,Graduated High-school,217810,1672168701395,1672168483585,female,"english, welsh",43175,touristInfo,3,main,touristInfo-clubbing,only hip hop and jazz sorry,sameCategory,"jazz, hip hop DJ","competitor, sameCategory",sameCategory
4632,69,,main,Graduated High-school,208141,1672165879722,1672165671581,female,English,26584,gymActivities,1,main,gym-yoga,"No I'm sorry, but maybe you would like to try a zumba class",sameCategory,zumba,sameCategory,sameCategory
4616,27,,main,Higher degree,132469,1672164859766,1672164727297,female,,41258,kidsActivities,4,main,kidsActivities-crafts,"Unfortunately not this year, but you can try either carpentry or water colour painting.",sameCategory,"carpentry, watercolor painting","competitor, sameCategory",sameCategory
4637,56,,main,Higher degree,293013,1672166014283,1672165721270,male,English,60151,interior,4,main,interior-green,"No, would you like an agave plant or some tulips instead?",sameCategory,"agave, tulips","competitor, sameCategory",sameCategory
4614,30,,main,Graduated College,142055,1672164834373,1672164692318,male,English,24283,clothing,3,main,clothing-clothes,"No, but we do have a selection of sweatshirts.",sameCategory,sweatshirt,sameCategory,sameCategory
4614,30,,main,Graduated College,142055,1672164834373,1672164692318,male,English,29872,interior,4,main,interior-green,I have some tulips or an agave plant.,sameCategory,"agave, tulips","competitor, sameCategory",sameCategory
4624,22,,main,Higher degree,111973,1672165025747,1672164913774,female,English,31800,books,4,main,books-fantasy,"Unfortunately, we do not have any psychological thrillers in stock. We have mystery and adventure books, which may be suitable alternatives.",sameCategory,"mystery, adventure","competitor, sameCategory",sameCategory
4619,34,,main,Graduated High-school,208664,1672164898665,1672164690001,female,British,28249,friendsActivities,5,main,friendsActivities-boardGames,No but we have checkers and monopoly,sameCategory,"Monopoly, checkers","competitor, sameCategory",sameCategory
4643,60,,main,Graduated College,678649,1672166354788,1672165676139,male,English,82681,dutyFree,3,main,dutyFree-sweets,"The closest we have to cookies, sir, are granola bars and gingerbread.",sameCategory,"gingerbread, granola bars","competitor, sameCategory",sameCategory
4630,36,,main,Graduated College,158740,1672165844403,1672165685663,female,,39627,bookingAgency,3,main,bookingAgency-lowClassAccommodation,"There isn't anything in a hostel, maybe a budget room or cheap b&b would be useful?",sameCategory,"bed-and-breakfast, budget hotel","competitor, sameCategory",sameCategory
4630,36,,main,Graduated College,158740,1672165844403,1672165685663,female,,29649,clothing,4,main,clothing-clothes,"We only have sweatshirts unfortunately, but I might be able to get something in if you could come back",sameCategory,sweatshirt,sameCategory,sameCategory
4644,58,,main,Graduated College,272968,1672167891866,1672167618898,male,English,50817,waterSport,4,main,waterSport-muscle,No we have no canoes but we do offer kayaks and pedal boats,sameCategory,"kayak, pedal boat","competitor, sameCategory",sameCategory
4610,30,,main,Higher degree,106785,1672164788994,1672164682209,female,English,18099,electronics,2,main,electronics-console,"No, but we have a gameboy or xbox",sameCategory,"Xbox, Gameboy","competitor, sameCategory",sameCategory
